Time,Gyro X,Gyro Y,Gyro Z,Accel X,Accel Y,Accel Z
0.000000000000000000e+00,0.000000000000000000e+00,6.283185307179586232e-01,0.000000000000000000e+00,-1.973920880217871598e+00,-0.000000000000000000e+00,9.810000000000000497e+00
1.000000000000000021e-02,3.947815784729408542e-03,6.283061282480890686e-01,0.000000000000000000e+00,-1.973881916709643081e+00,-1.240242906703173387e-02,9.810000000000000497e+00
2.000000000000000042e-02,7.895475716451378148e-03,6.282689213281087426e-01,0.000000000000000000e+00,-1.973765027723169974e+00,-2.480436850740026095e-02,9.810000000000000497e+00
2.999999999999999889e-02,1.184282394831128252e-02,6.282069114268830079e-01,0.000000000000000000e+00,-1.973570217873029442e+00,-3.720532871377199569e-02,9.810000000000000497e+00
4.000000000000000083e-02,1.578970464575987082e-02,6.281201009924566314e-01,0.000000000000000000e+00,-1.973297494849980849e+00,-4.960482011747183867e-02,9.810000000000000497e+00
5.000000000000000278e-02,1.973596199270534826e-02,6.280084934519570838e-01,0.000000000000000000e+00,-1.972946869420662219e+00,-6.200235320781050108e-02,9.810000000000000497e+00
5.999999999999999778e-02,2.368144019766473679e-02,6.278720932114587594e-01,0.000000000000000000e+00,-1.972518355427164582e+00,-7.439743855140955320e-02,9.810000000000000497e+00
7.000000000000000666e-02,2.762598349991424174e-02,6.277109056558096700e-01,0.000000000000000000e+00,-1.972011969786487295e+00,-8.678958681152341981e-02,9.810000000000000497e+00
8.000000000000000167e-02,3.156943617563842674e-02,6.275249371484185046e-01,0.000000000000000000e+00,-1.971427732489868134e+00,-9.917830876735753143e-02,9.810000000000000497e+00
8.999999999999999667e-02,3.551164254407793153e-02,6.273141950310034964e-01,0.000000000000000000e+00,-1.970765666601995481e+00,-1.115631153333819792e-01,9.810000000000000497e+00
1.000000000000000056e-01,3.945244697367546877e-02,6.270786876233026552e-01,0.000000000000000000e+00,-1.970025798260096384e+00,-1.239435175786397086e-01,9.810000000000000497e+00
1.100000000000000006e-01,4.339169388821988854e-02,6.268184242227451408e-01,0.000000000000000000e+00,-1.969208156672906718e+00,-1.363190267460487326e-01,9.810000000000000497e+00
1.199999999999999956e-01,4.732922777298809169e-02,6.265334151040844457e-01,0.000000000000000000e+00,-1.968312774119515884e+00,-1.486891542716974046e-01,9.810000000000000497e+00
1.300000000000000044e-01,5.126489318088442437e-02,6.262236715189923864e-01,0.000000000000000000e+00,-1.967339685948094052e+00,-1.610534118041319906e-01,9.810000000000000497e+00
1.400000000000000133e-01,5.519853473857754683e-02,6.258892056956154581e-01,0.000000000000000000e+00,-1.966288930574496385e+00,-1.734113112236362331e-01,9.810000000000000497e+00
1.499999999999999944e-01,5.912999715263420747e-02,6.255300308380915553e-01,0.000000000000000000e+00,-1.965160549480745145e+00,-1.857623646615010060e-01,9.810000000000000497e+00
1.600000000000000033e-01,6.305912521565007478e-02,6.251461611260292761e-01,0.000000000000000000e+00,-1.963954587213394554e+00,-1.981060845192851305e-01,9.810000000000000497e+00
1.700000000000000122e-01,6.698576381237691946e-02,6.247376117139472607e-01,0.000000000000000000e+00,-1.962671091381769539e+00,-2.104419834880643381e-01,9.810000000000000497e+00
1.799999999999999933e-01,7.090975792584645887e-02,6.243043987306770015e-01,0.000000000000000000e+00,-1.961310112656087901e+00,-2.227695745676698535e-01,9.810000000000000497e+00
1.900000000000000022e-01,7.483095264349004516e-02,6.238465392787252428e-01,0.000000000000000000e+00,-1.959871704765459688e+00,-2.350883710859140441e-01,9.810000000000000497e+00
2.000000000000000111e-01,7.874919316325439123e-02,6.233640514335990757e-01,0.000000000000000000e+00,-1.958355924495764899e+00,-2.473978867178035501e-01,9.810000000000000497e+00
2.099999999999999922e-01,8.266432479971284886e-02,6.228569542430926198e-01,0.000000000000000000e+00,-1.956762831687413495e+00,-2.596976355047384000e-01,9.810000000000000497e+00
2.200000000000000011e-01,8.657619299017221826e-02,6.223252677265344035e-01,0.000000000000000000e+00,-1.955092489232981734e+00,-2.719871318736971633e-01,9.810000000000000497e+00
2.300000000000000100e-01,9.048464330077450601e-02,6.217690128739979949e-01,0.000000000000000000e+00,-1.953344963074729712e+00,-2.842658906564061172e-01,9.810000000000000497e+00
2.399999999999999911e-01,9.438952143259382588e-02,6.211882116454724434e-01,0.000000000000000000e+00,-1.951520322201997892e+00,-2.965334271084931195e-01,9.810000000000000497e+00
2.500000000000000000e-01,9.829067322772772064e-02,6.205828869699956396e-01,0.000000000000000000e+00,-1.949618638648483282e+00,-3.087892569286243560e-01,9.810000000000000497e+00
2.600000000000000089e-01,1.021879446753831688e-01,6.199530627447493725e-01,0.000000000000000000e+00,-1.947639987489396596e+00,-3.210328962776239914e-01,9.810000000000000497e+00
2.700000000000000178e-01,1.060811819179566656e-01,6.192987638341156398e-01,0.000000000000000000e+00,-1.945584446838497961e+00,-3.332638617975750561e-01,9.810000000000000497e+00
2.800000000000000266e-01,1.099702312571080726e-01,6.186200160686949889e-01,0.000000000000000000e+00,-1.943452097845012050e+00,-3.454816706309014052e-01,9.810000000000000497e+00
2.899999999999999800e-01,1.138549391598286387e-01,6.179168462442872212e-01,0.000000000000000000e+00,-1.941243024690426422e+00,-3.576858404394305246e-01,9.810000000000000497e+00
2.999999999999999889e-01,1.177351522645020687e-01,6.171892821208326829e-01,0.000000000000000000e+00,-1.938957314585166403e+00,-3.698758894234354111e-01,9.810000000000000497e+00
3.099999999999999978e-01,1.216107173869589719e-01,6.164373524213174749e-01,0.000000000000000000e+00,-1.936595057765153172e+00,-3.820513363406548568e-01,9.810000000000000497e+00
3.200000000000000067e-01,1.254814815265243577e-01,6.156610868306383599e-01,0.000000000000000000e+00,-1.934156347488241279e+00,-3.942117005252923079e-01,9.810000000000000497e+00
3.300000000000000155e-01,1.293472918720577902e-01,6.148605159944318110e-01,0.000000000000000000e+00,-1.931641280030536700e+00,-4.063565019069914630e-01,9.810000000000000497e+00
3.400000000000000244e-01,1.332079958079861182e-01,6.140356715178637570e-01,0.000000000000000000e+00,-1.929049954682596102e+00,-4.184852610297891129e-01,9.810000000000000497e+00
3.500000000000000333e-01,1.370634409203285997e-01,6.131865859643815808e-01,0.000000000000000000e+00,-1.926382473745507307e+00,-4.305974990710429440e-01,9.810000000000000497e+00
3.599999999999999867e-01,1.409134750027137006e-01,6.123132928544291476e-01,0.000000000000000000e+00,-1.923638942526850082e+00,-4.426927378603343621e-01,9.810000000000000497e+00
3.699999999999999956e-01,1.447579460623882597e-01,6.114158266641230854e-01,0.000000000000000000e+00,-1.920819469336539465e+00,-4.547704998983464475e-01,9.810000000000000497e+00
3.800000000000000044e-01,1.485967023262175501e-01,6.104942228238919855e-01,0.000000000000000000e+00,-1.917924165482549181e+00,-4.668303083757144312e-01,9.810000000000000497e+00
3.900000000000000133e-01,1.524295922466773201e-01,6.095485177170771873e-01,0.000000000000000000e+00,-1.914953145266517609e+00,-4.788716871918491935e-01,9.810000000000000497e+00
4.000000000000000222e-01,1.562564645078364789e-01,6.085787486784972611e-01,0.000000000000000000e+00,-1.911906525979236049e+00,-4.908941609737333400e-01,9.810000000000000497e+00
4.100000000000000311e-01,1.600771680313307632e-01,6.075849539929731868e-01,0.000000000000000000e+00,-1.908784427896017100e+00,-5.028972550946876341e-01,9.810000000000000497e+00
4.199999999999999845e-01,1.638915519823272160e-01,6.065671728938176743e-01,0.000000000000000000e+00,-1.905586974271947343e+00,-5.148804956931088972e-01,9.810000000000000497e+00
4.299999999999999933e-01,1.676994657754786455e-01,6.055254455612855136e-01,0.000000000000000000e+00,-1.902314291337020791e+00,-5.268434096911767117e-01,9.810000000000000497e+00
4.400000000000000022e-01,1.715007590808687588e-01,6.044598131209883984e-01,0.000000000000000000e+00,-1.898966508291156208e+00,-5.387855248135303698e-01,9.810000000000000497e+00
4.500000000000000111e-01,1.752952818299467197e-01,6.033703176422700043e-01,0.000000000000000000e+00,-1.895543757299095633e+00,-5.507063696059130153e-01,9.810000000000000497e+00
4.600000000000000200e-01,1.790828842214516048e-01,6.022570021365467596e-01,0.000000000000000000e+00,-1.892046173485187444e+00,-5.626054734537838664e-01,9.810000000000000497e+00
4.700000000000000289e-01,1.828634167273264499e-01,6.011199105556082056e-01,0.000000000000000000e+00,-1.888473894928052399e+00,-5.744823666008976870e-01,9.810000000000000497e+00
4.799999999999999822e-01,1.866367300986212230e-01,5.999590877898831609e-01,0.000000000000000000e+00,-1.884827062655130669e+00,-5.863365801678495082e-01,9.810000000000000497e+00
4.899999999999999911e-01,1.904026753713849440e-01,5.987745796666666953e-01,0.000000000000000000e+00,-1.881105820637116288e+00,-5.981676461705851544e-01,9.810000000000000497e+00
5.000000000000000000e-01,1.941611038725466198e-01,5.975664329483111326e-01,0.000000000000000000e+00,-1.877310315782271921e+00,-6.099750975388772423e-01,9.810000000000000497e+00
5.100000000000000089e-01,1.979118672257844935e-01,5.963346953303805265e-01,0.000000000000000000e+00,-1.873440697930631060e+00,-6.217584681347630982e-01,9.810000000000000497e+00
5.200000000000000178e-01,2.016548173573836922e-01,5.950794154397668345e-01,0.000000000000000000e+00,-1.869497119848079869e+00,-6.335172927709480373e-01,9.810000000000000497e+00
5.300000000000000266e-01,2.053898065020819397e-01,5.938006428327706754e-01,0.000000000000000000e+00,-1.865479737220328893e+00,-6.452511072291697847e-01,9.810000000000000497e+00
5.400000000000000355e-01,2.091166872089031958e-01,5.924984279931450049e-01,0.000000000000000000e+00,-1.861388708646765311e+00,-6.569594482785249268e-01,9.810000000000000497e+00
5.500000000000000444e-01,2.128353123469785557e-01,5.911728223301020435e-01,0.000000000000000000e+00,-1.857224195634192609e+00,-6.686418536937568380e-01,9.810000000000000497e+00
5.600000000000000533e-01,2.165455351113548532e-01,5.898238781762834559e-01,0.000000000000000000e+00,-1.852986362590453240e+00,-6.802978622735029735e-01,9.810000000000000497e+00
5.700000000000000622e-01,2.202472090287903306e-01,5.884516487856946698e-01,0.000000000000000000e+00,-1.848675376817939586e+00,-6.919270138585031926e-01,9.810000000000000497e+00
5.799999999999999600e-01,2.239401879635369574e-01,5.870561883316025575e-01,0.000000000000000000e+00,-1.844291408506988805e+00,-7.035288493497651174e-01,9.810000000000000497e+00
5.899999999999999689e-01,2.276243261231097881e-01,5.856375519043962585e-01,0.000000000000000000e+00,-1.839834630729162646e+00,-7.151029107266889673e-01,9.810000000000000497e+00
5.999999999999999778e-01,2.312994780640425796e-01,5.841957955094129185e-01,0.000000000000000000e+00,-1.835305219430416690e+00,-7.266487410651496504e-01,9.810000000000000497e+00
6.099999999999999867e-01,2.349654986976295323e-01,5.827309760647262360e-01,0.000000000000000000e+00,-1.830703353424153690e+00,-7.381658845555351123e-01,9.810000000000000497e+00
6.199999999999999956e-01,2.386222432956532913e-01,5.812431513988998155e-01,0.000000000000000000e+00,-1.826029214384163435e+00,-7.496538865207407198e-01,9.810000000000000497e+00
6.300000000000000044e-01,2.422695674960984868e-01,5.797323802487037714e-01,0.000000000000000000e+00,-1.821282986837452267e+00,-7.611122934341195689e-01,9.810000000000000497e+00
6.400000000000000133e-01,2.459073273088508704e-01,5.781987222567964713e-01,0.000000000000000000e+00,-1.816464858156956907e+00,-7.725406529373866071e-01,9.810000000000000497e+00
6.500000000000000222e-01,2.495353791213818784e-01,5.766422379693690869e-01,0.000000000000000000e+00,-1.811575018554147265e+00,-7.839385138584771262e-01,9.810000000000000497e+00
6.600000000000000311e-01,2.531535797044181524e-01,5.750629888337563944e-01,0.000000000000000000e+00,-1.806613661071518440e+00,-7.953054262293582921e-01,9.810000000000000497e+00
6.700000000000000400e-01,2.567617862175960997e-01,5.734610371960101594e-01,0.000000000000000000e+00,-1.801580981574968598e+00,-8.066409413037929355e-01,9.810000000000000497e+00
6.800000000000000488e-01,2.603598562151007711e-01,5.718364462984379948e-01,0.000000000000000000e+00,-1.796477178746067160e+00,-8.179446115750553803e-01,9.810000000000000497e+00
6.900000000000000577e-01,2.639476476512895298e-01,5.701892802771068025e-01,0.000000000000000000e+00,-1.791302454074210182e+00,-8.292159907935983121e-01,9.810000000000000497e+00
7.000000000000000666e-01,2.675250188862998146e-01,5.685196041593105765e-01,0.000000000000000000e+00,-1.786057011848667386e+00,-8.404546339846701297e-01,9.810000000000000497e+00
7.099999999999999645e-01,2.710918286916405573e-01,5.668274838610037891e-01,0.000000000000000000e+00,-1.780741059150516614e+00,-8.516600974658806722e-01,9.810000000000000497e+00
7.199999999999999734e-01,2.746479362557682213e-01,5.651129861841982516e-01,0.000000000000000000e+00,-1.775354805844467476e+00,-8.628319388647192056e-01,9.810000000000000497e+00
7.299999999999999822e-01,2.781932011896450230e-01,5.633761788143264448e-01,0.000000000000000000e+00,-1.769898464570577756e+00,-8.739697171360162331e-01,9.810000000000000497e+00
7.399999999999999911e-01,2.817274835322819970e-01,5.616171303175696572e-01,0.000000000000000000e+00,-1.764372250735858572e+00,-8.850729925793565656e-01,9.810000000000000497e+00
7.500000000000000000e-01,2.852506437562637998e-01,5.598359101381505942e-01,0.000000000000000000e+00,-1.758776382505769398e+00,-8.961413268564375478e-01,9.810000000000000497e+00
7.600000000000000089e-01,2.887625427732574135e-01,5.580325885955917942e-01,0.000000000000000000e+00,-1.753111080795606513e+00,-9.071742830083739939e-01,9.810000000000000497e+00
7.700000000000000178e-01,2.922630419395030876e-01,5.562072368819400703e-01,0.000000000000000000e+00,-1.747376569261780865e+00,-9.181714254729483882e-01,9.810000000000000497e+00
7.800000000000000266e-01,2.957520030612874051e-01,5.543599270589555372e-01,0.000000000000000000e+00,-1.741573074292988466e+00,-9.291323201018064637e-01,9.810000000000000497e+00
7.900000000000000355e-01,2.992292884003994180e-01,5.524907320552669976e-01,0.000000000000000000e+00,-1.735700825001273762e+00,-9.400565341775963812e-01,9.810000000000000497e+00
8.000000000000000444e-01,3.026947606795680201e-01,5.505997256634926895e-01,0.000000000000000000e+00,-1.729760053212983983e+00,-9.509436364310515089e-01,9.810000000000000497e+00
8.100000000000000533e-01,3.061482830878813899e-01,5.486869825373267284e-01,0.000000000000000000e+00,-1.723750993459616909e+00,-9.617931970580164691e-01,9.810000000000000497e+00
8.200000000000000622e-01,3.095897192861883362e-01,5.467525781885929081e-01,0.000000000000000000e+00,-1.717673882968562493e+00,-9.726047877364155658e-01,9.810000000000000497e+00
8.300000000000000711e-01,3.130189334124803824e-01,5.447965889842625309e-01,0.000000000000000000e+00,-1.711528961653737246e+00,-9.833779816431609255e-01,9.810000000000000497e+00
8.399999999999999689e-01,3.164357900872554197e-01,5.428190921434402627e-01,0.000000000000000000e+00,-1.705316472106112924e+00,-9.941123534710035736e-01,9.810000000000000497e+00
8.499999999999999778e-01,3.198401544188628209e-01,5.408201657343153501e-01,0.000000000000000000e+00,-1.699036659584139519e+00,-1.004807479445324558e+00,9.810000000000000497e+00
8.599999999999999867e-01,3.232318920088277370e-01,5.387998886710796409e-01,0.000000000000000000e+00,-1.692689772004062121e+00,-1.015462937340862570e+00,9.810000000000000497e+00
8.699999999999999956e-01,3.266108689571578516e-01,5.367583407108124094e-01,0.000000000000000000e+00,-1.686276059930135407e+00,-1.026078306498385828e+00,9.810000000000000497e+00
8.800000000000000044e-01,3.299769518676289315e-01,5.346956024503313198e-01,0.000000000000000000e+00,-1.679795776564729559e+00,-1.036653167841295797e+00,9.810000000000000497e+00
8.900000000000000133e-01,3.333300078530512800e-01,5.326117553230111934e-01,0.000000000000000000e+00,-1.673249177738336257e+00,-1.047187103892174065e+00,9.810000000000000497e+00
9.000000000000000222e-01,3.366699045405160406e-01,5.305068815955681361e-01,0.000000000000000000e+00,-1.666636521899467205e+00,-1.057679698789262046e+00,9.810000000000000497e+00
9.100000000000000311e-01,3.399965100766206283e-01,5.283810643648130245e-01,0.000000000000000000e+00,-1.659958070104452510e+00,-1.068130538302879406e+00,9.810000000000000497e+00
9.200000000000000400e-01,3.433096931326747869e-01,5.262343875543701310e-01,0.000000000000000000e+00,-1.653214086007133377e+00,-1.078539209851777425e+00,9.810000000000000497e+00
9.300000000000000488e-01,3.466093229098843875e-01,5.240669359113641068e-01,0.000000000000000000e+00,-1.646404835848454429e+00,-1.088905302519425300e+00,9.810000000000000497e+00
9.400000000000000577e-01,3.498952691445156860e-01,5.218787950030746581e-01,0.000000000000000000e+00,-1.639530588445953008e+00,-1.099228407070233837e+00,9.810000000000000497e+00
9.500000000000000666e-01,3.531674021130378760e-01,5.196700512135581373e-01,0.000000000000000000e+00,-1.632591615183145883e+00,-1.109508115965712083e+00,9.810000000000000497e+00
9.599999999999999645e-01,3.564255926372440486e-01,5.174407917402373824e-01,0.000000000000000000e+00,-1.625588189998815825e+00,-1.119744023380554232e+00,9.810000000000000497e+00
9.699999999999999734e-01,3.596697120893512234e-01,5.151911045904592479e-01,0.000000000000000000e+00,-1.618520589376197361e+00,-1.129935725218661924e+00,9.810000000000000497e+00
9.799999999999999822e-01,3.628996323970784532e-01,5.129210785780202730e-01,0.000000000000000000e+00,-1.611389092332061512e+00,-1.140082819129098146e+00,9.810000000000000497e+00
9.899999999999999911e-01,3.661152260487022247e-01,5.106308033196607088e-01,0.000000000000000000e+00,-1.604193980405700382e+00,-1.150184904521969420e+00,9.810000000000000497e+00
1.000000000000000000e+00,3.693163660980913199e-01,5.083203692315260147e-01,0.000000000000000000e+00,-1.596935537647813153e+00,-1.160241582584242259e+00,9.810000000000000497e+00
1.010000000000000009e+00,3.725029261697177518e-01,5.059898675255978251e-01,0.000000000000000000e+00,-1.589614050609290841e+00,-1.170252456295486354e+00,9.810000000000000497e+00
1.020000000000000018e+00,3.756747804636461630e-01,5.036393902060933847e-01,0.000000000000000000e+00,-1.582229808329906229e+00,-1.180217130443549145e+00,9.810000000000000497e+00
1.030000000000000027e+00,3.788318037605001853e-01,5.012690300658322329e-01,0.000000000000000000e+00,-1.574783102326899664e+00,-1.190135211640157564e+00,9.810000000000000497e+00
1.040000000000000036e+00,3.819738714264056534e-01,4.988788806825741884e-01,0.000000000000000000e+00,-1.567274226583474039e+00,-1.200006308336448280e+00,9.810000000000000497e+00
1.050000000000000044e+00,3.851008594179112232e-01,4.964690364153241386e-01,0.000000000000000000e+00,-1.559703477537185856e+00,-1.209830030838425552e+00,9.810000000000000497e+00
1.060000000000000053e+00,3.882126442868852334e-01,4.940395924006077411e-01,0.000000000000000000e+00,-1.552071154068245029e+00,-1.219605991322346261e+00,9.810000000000000497e+00
1.070000000000000062e+00,3.913091031853894175e-01,4.915906445487145393e-01,0.000000000000000000e+00,-1.544377557487712771e+00,-1.229333803850029661e+00,9.810000000000000497e+00
1.080000000000000071e+00,3.943901138705283027e-01,4.891222895399125470e-01,0.000000000000000000e+00,-1.536622991525608883e+00,-1.239013084384093633e+00,9.810000000000000497e+00
1.090000000000000080e+00,3.974555547092755159e-01,4.866346248206310787e-01,0.000000000000000000e+00,-1.528807762318919794e+00,-1.248643450803116117e+00,9.810000000000000497e+00
1.100000000000000089e+00,4.005053046832758867e-01,4.841277485996136054e-01,0.000000000000000000e+00,-1.520932178399512225e+00,-1.258224522916721266e+00,9.810000000000000497e+00
1.110000000000000098e+00,4.035392433936221823e-01,4.816017598440409664e-01,0.000000000000000000e+00,-1.512996550681954933e+00,-1.267755922480586994e+00,9.810000000000000497e+00
1.120000000000000107e+00,4.065572510656091931e-01,4.790567582756238285e-01,0.000000000000000000e+00,-1.505001192451241199e+00,-1.277237273211378810e+00,9.810000000000000497e+00
1.130000000000000115e+00,4.095592085534616178e-01,4.764928443666667235e-01,0.000000000000000000e+00,-1.496946419350424939e+00,-1.286668200801605044e+00,9.810000000000000497e+00
1.140000000000000124e+00,4.125449973450380781e-01,4.739101193361003328e-01,0.000000000000000000e+00,-1.488832549368154901e+00,-1.296048332934392366e+00,9.810000000000000497e+00
1.150000000000000133e+00,4.155144995665095431e-01,4.713086851454866832e-01,0.000000000000000000e+00,-1.480659902826125807e+00,-1.305377299298185578e+00,9.810000000000000497e+00
1.159999999999999920e+00,4.184675979870127738e-01,4.686886444949932562e-01,0.000000000000000000e+00,-1.472428802366429146e+00,-1.314654731601366144e+00,9.810000000000000497e+00
1.169999999999999929e+00,4.214041760232788425e-01,4.660501008193386752e-01,0.000000000000000000e+00,-1.464139572938816691e+00,-1.323880263586792783e+00,9.810000000000000497e+00
1.179999999999999938e+00,4.243241177442351186e-01,4.633931582837092500e-01,0.000000000000000000e+00,-1.455792541787873207e+00,-1.333053531046259454e+00,9.810000000000000497e+00
1.189999999999999947e+00,4.272273078755821074e-01,4.607179217796469883e-01,0.000000000000000000e+00,-1.447388038440095892e+00,-1.342174171834873642e+00,9.810000000000000497e+00
1.199999999999999956e+00,4.301136318043444207e-01,4.580244969209082972e-01,0.000000000000000000e+00,-1.438926394690886346e+00,-1.351241825885353576e+00,9.810000000000000497e+00
1.209999999999999964e+00,4.329829755833956573e-01,4.553129900392947627e-01,0.000000000000000000e+00,-1.430407944591451042e+00,-1.360256135222244644e+00,9.810000000000000497e+00
1.219999999999999973e+00,4.358352259359564163e-01,4.525835081804551741e-01,0.000000000000000000e+00,-1.421833024435614101e+00,-1.369216743976048312e+00,9.810000000000000497e+00
1.229999999999999982e+00,4.386702702600666637e-01,4.498361590996597381e-01,0.000000000000000000e+00,-1.413201972746540358e+00,-1.378123298397274654e+00,9.810000000000000497e+00
1.239999999999999991e+00,4.414879966330308991e-01,4.470710512575459261e-01,0.000000000000000000e+00,-1.404515130263372047e+00,-1.386975446870405193e+00,9.810000000000000497e+00
1.250000000000000000e+00,4.442882938158365658e-01,4.442882938158366213e-01,0.000000000000000000e+00,-1.395772839927776010e+00,-1.395772839927775788e+00,9.810000000000000497e+00
1.260000000000000009e+00,4.470710512575458706e-01,4.414879966330308991e-01,0.000000000000000000e+00,-1.386975446870405193e+00,-1.404515130263371825e+00,9.810000000000000497e+00
1.270000000000000018e+00,4.498361590996596271e-01,4.386702702600667747e-01,0.000000000000000000e+00,-1.378123298397274876e+00,-1.413201972746540136e+00,9.810000000000000497e+00
1.280000000000000027e+00,4.525835081804551741e-01,4.358352259359564163e-01,0.000000000000000000e+00,-1.369216743976048312e+00,-1.421833024435614101e+00,9.810000000000000497e+00
1.290000000000000036e+00,4.553129900392947071e-01,4.329829755833956573e-01,0.000000000000000000e+00,-1.360256135222244644e+00,-1.430407944591450820e+00,9.810000000000000497e+00
1.300000000000000044e+00,4.580244969209082972e-01,4.301136318043444207e-01,0.000000000000000000e+00,-1.351241825885353576e+00,-1.438926394690886346e+00,9.810000000000000497e+00
1.310000000000000053e+00,4.607179217796469328e-01,4.272273078755821074e-01,0.000000000000000000e+00,-1.342174171834873642e+00,-1.447388038440095670e+00,9.810000000000000497e+00
1.320000000000000062e+00,4.633931582837092500e-01,4.243241177442351741e-01,0.000000000000000000e+00,-1.333053531046259677e+00,-1.455792541787873207e+00,9.810000000000000497e+00
1.330000000000000071e+00,4.660501008193385641e-01,4.214041760232788980e-01,0.000000000000000000e+00,-1.323880263586793005e+00,-1.464139572938816469e+00,9.810000000000000497e+00
1.340000000000000080e+00,4.686886444949932007e-01,4.184675979870128293e-01,0.000000000000000000e+00,-1.314654731601366366e+00,-1.472428802366428924e+00,9.810000000000000497e+00
1.350000000000000089e+00,4.713086851454867388e-01,4.155144995665094321e-01,0.000000000000000000e+00,-1.305377299298185356e+00,-1.480659902826126029e+00,9.810000000000000497e+00
1.360000000000000098e+00,4.739101193361003328e-01,4.125449973450380226e-01,0.000000000000000000e+00,-1.296048332934392144e+00,-1.488832549368154901e+00,9.810000000000000497e+00
1.370000000000000107e+00,4.764928443666667235e-01,4.095592085534615623e-01,0.000000000000000000e+00,-1.286668200801604822e+00,-1.496946419350424939e+00,9.810000000000000497e+00
1.380000000000000115e+00,4.790567582756239395e-01,4.065572510656091931e-01,0.000000000000000000e+00,-1.277237273211378810e+00,-1.505001192451241421e+00,9.810000000000000497e+00
1.390000000000000124e+00,4.816017598440409664e-01,4.035392433936221268e-01,0.000000000000000000e+00,-1.267755922480586772e+00,-1.512996550681954933e+00,9.810000000000000497e+00
1.400000000000000133e+00,4.841277485996136609e-01,4.005053046832757757e-01,0.000000000000000000e+00,-1.258224522916721044e+00,-1.520932178399512447e+00,9.810000000000000497e+00
1.409999999999999920e+00,4.866346248206310787e-01,3.974555547092756269e-01,0.000000000000000000e+00,-1.248643450803116339e+00,-1.528807762318919794e+00,9.810000000000000497e+00
1.419999999999999929e+00,4.891222895399125470e-01,3.943901138705283027e-01,0.000000000000000000e+00,-1.239013084384093633e+00,-1.536622991525608883e+00,9.810000000000000497e+00
1.429999999999999938e+00,4.915906445487145393e-01,3.913091031853894175e-01,0.000000000000000000e+00,-1.229333803850029661e+00,-1.544377557487712771e+00,9.810000000000000497e+00
1.439999999999999947e+00,4.940395924006077411e-01,3.882126442868852334e-01,0.000000000000000000e+00,-1.219605991322346261e+00,-1.552071154068245029e+00,9.810000000000000497e+00
1.449999999999999956e+00,4.964690364153241386e-01,3.851008594179112787e-01,0.000000000000000000e+00,-1.209830030838425774e+00,-1.559703477537185856e+00,9.810000000000000497e+00
1.459999999999999964e+00,4.988788806825740774e-01,3.819738714264056534e-01,0.000000000000000000e+00,-1.200006308336448280e+00,-1.567274226583473817e+00,9.810000000000000497e+00
1.469999999999999973e+00,5.012690300658322329e-01,3.788318037605002409e-01,0.000000000000000000e+00,-1.190135211640157786e+00,-1.574783102326899664e+00,9.810000000000000497e+00
1.479999999999999982e+00,5.036393902060932737e-01,3.756747804636462185e-01,0.000000000000000000e+00,-1.180217130443549367e+00,-1.582229808329906007e+00,9.810000000000000497e+00
1.489999999999999991e+00,5.059898675255978251e-01,3.725029261697178073e-01,0.000000000000000000e+00,-1.170252456295486576e+00,-1.589614050609290841e+00,9.810000000000000497e+00
1.500000000000000000e+00,5.083203692315260147e-01,3.693163660980913199e-01,0.000000000000000000e+00,-1.160241582584242259e+00,-1.596935537647813153e+00,9.810000000000000497e+00
1.510000000000000009e+00,5.106308033196607088e-01,3.661152260487022247e-01,0.000000000000000000e+00,-1.150184904521969420e+00,-1.604193980405700382e+00,9.810000000000000497e+00
1.520000000000000018e+00,5.129210785780202730e-01,3.628996323970784532e-01,0.000000000000000000e+00,-1.140082819129098146e+00,-1.611389092332061512e+00,9.810000000000000497e+00
1.530000000000000027e+00,5.151911045904592479e-01,3.596697120893512789e-01,0.000000000000000000e+00,-1.129935725218662146e+00,-1.618520589376197361e+00,9.810000000000000497e+00
1.540000000000000036e+00,5.174407917402373824e-01,3.564255926372440486e-01,0.000000000000000000e+00,-1.119744023380554232e+00,-1.625588189998815825e+00,9.810000000000000497e+00
1.550000000000000044e+00,5.196700512135581373e-01,3.531674021130378760e-01,0.000000000000000000e+00,-1.109508115965712083e+00,-1.632591615183145883e+00,9.810000000000000497e+00
1.560000000000000053e+00,5.218787950030746581e-01,3.498952691445157415e-01,0.000000000000000000e+00,-1.099228407070234059e+00,-1.639530588445952786e+00,9.810000000000000497e+00
1.570000000000000062e+00,5.240669359113641068e-01,3.466093229098843875e-01,0.000000000000000000e+00,-1.088905302519425300e+00,-1.646404835848454429e+00,9.810000000000000497e+00
1.580000000000000071e+00,5.262343875543701310e-01,3.433096931326747314e-01,0.000000000000000000e+00,-1.078539209851777203e+00,-1.653214086007133377e+00,9.810000000000000497e+00
1.590000000000000080e+00,5.283810643648130245e-01,3.399965100766206838e-01,0.000000000000000000e+00,-1.068130538302879629e+00,-1.659958070104452288e+00,9.810000000000000497e+00
1.600000000000000089e+00,5.305068815955681361e-01,3.366699045405159851e-01,0.000000000000000000e+00,-1.057679698789261824e+00,-1.666636521899467205e+00,9.810000000000000497e+00
1.610000000000000098e+00,5.326117553230111934e-01,3.333300078530512245e-01,0.000000000000000000e+00,-1.047187103892173843e+00,-1.673249177738336257e+00,9.810000000000000497e+00
1.620000000000000107e+00,5.346956024503313198e-01,3.299769518676289315e-01,0.000000000000000000e+00,-1.036653167841295797e+00,-1.679795776564729559e+00,9.810000000000000497e+00
1.630000000000000115e+00,5.367583407108124094e-01,3.266108689571578516e-01,0.000000000000000000e+00,-1.026078306498385828e+00,-1.686276059930135407e+00,9.810000000000000497e+00
1.640000000000000124e+00,5.387998886710796409e-01,3.232318920088277370e-01,0.000000000000000000e+00,-1.015462937340862570e+00,-1.692689772004062343e+00,9.810000000000000497e+00
1.650000000000000133e+00,5.408201657343153501e-01,3.198401544188627654e-01,0.000000000000000000e+00,-1.004807479445324336e+00,-1.699036659584139519e+00,9.810000000000000497e+00
1.660000000000000142e+00,5.428190921434403737e-01,3.164357900872553642e-01,0.000000000000000000e+00,-9.941123534710033516e-01,-1.705316472106113146e+00,9.810000000000000497e+00
1.669999999999999929e+00,5.447965889842625309e-01,3.130189334124803269e-01,0.000000000000000000e+00,-9.833779816431608145e-01,-1.711528961653737246e+00,9.810000000000000497e+00
1.679999999999999938e+00,5.467525781885929081e-01,3.095897192861883362e-01,0.000000000000000000e+00,-9.726047877364155658e-01,-1.717673882968562493e+00,9.810000000000000497e+00
1.689999999999999947e+00,5.486869825373267284e-01,3.061482830878815009e-01,0.000000000000000000e+00,-9.617931970580168022e-01,-1.723750993459616687e+00,9.810000000000000497e+00
1.699999999999999956e+00,5.505997256634926895e-01,3.026947606795680201e-01,0.000000000000000000e+00,-9.509436364310515089e-01,-1.729760053212983983e+00,9.810000000000000497e+00
1.709999999999999964e+00,5.524907320552669976e-01,2.992292884003994180e-01,0.000000000000000000e+00,-9.400565341775963812e-01,-1.735700825001273762e+00,9.810000000000000497e+00
1.719999999999999973e+00,5.543599270589555372e-01,2.957520030612874051e-01,0.000000000000000000e+00,-9.291323201018064637e-01,-1.741573074292988466e+00,9.810000000000000497e+00
1.729999999999999982e+00,5.562072368819399593e-01,2.922630419395031431e-01,0.000000000000000000e+00,-9.181714254729487212e-01,-1.747376569261780643e+00,9.810000000000000497e+00
1.739999999999999991e+00,5.580325885955916831e-01,2.887625427732575245e-01,0.000000000000000000e+00,-9.071742830083742160e-01,-1.753111080795606291e+00,9.810000000000000497e+00
1.750000000000000000e+00,5.598359101381504832e-01,2.852506437562637998e-01,0.000000000000000000e+00,-8.961413268564376589e-01,-1.758776382505769176e+00,9.810000000000000497e+00
1.760000000000000009e+00,5.616171303175696572e-01,2.817274835322819970e-01,0.000000000000000000e+00,-8.850729925793565656e-01,-1.764372250735858572e+00,9.810000000000000497e+00
1.770000000000000018e+00,5.633761788143264448e-01,2.781932011896450230e-01,0.000000000000000000e+00,-8.739697171360162331e-01,-1.769898464570577756e+00,9.810000000000000497e+00
1.780000000000000027e+00,5.651129861841981405e-01,2.746479362557682768e-01,0.000000000000000000e+00,-8.628319388647194277e-01,-1.775354805844467254e+00,9.810000000000000497e+00
1.790000000000000036e+00,5.668274838610037891e-01,2.710918286916406128e-01,0.000000000000000000e+00,-8.516600974658808942e-01,-1.780741059150516614e+00,9.810000000000000497e+00
1.800000000000000044e+00,5.685196041593106875e-01,2.675250188862997591e-01,0.000000000000000000e+00,-8.404546339846700187e-01,-1.786057011848667608e+00,9.810000000000000497e+00
1.810000000000000053e+00,5.701892802771068025e-01,2.639476476512894743e-01,0.000000000000000000e+00,-8.292159907935982011e-01,-1.791302454074210404e+00,9.810000000000000497e+00
1.820000000000000062e+00,5.718364462984379948e-01,2.603598562151008267e-01,0.000000000000000000e+00,-8.179446115750556023e-01,-1.796477178746067160e+00,9.810000000000000497e+00
1.830000000000000071e+00,5.734610371960101594e-01,2.567617862175960997e-01,0.000000000000000000e+00,-8.066409413037930465e-01,-1.801580981574968598e+00,9.810000000000000497e+00
1.840000000000000080e+00,5.750629888337563944e-01,2.531535797044182079e-01,0.000000000000000000e+00,-7.953054262293584031e-01,-1.806613661071518440e+00,9.810000000000000497e+00
1.850000000000000089e+00,5.766422379693690869e-01,2.495353791213818506e-01,0.000000000000000000e+00,-7.839385138584770152e-01,-1.811575018554147265e+00,9.810000000000000497e+00
1.860000000000000098e+00,5.781987222567964713e-01,2.459073273088508149e-01,0.000000000000000000e+00,-7.725406529373863851e-01,-1.816464858156956907e+00,9.810000000000000497e+00
1.870000000000000107e+00,5.797323802487037714e-01,2.422695674960985424e-01,0.000000000000000000e+00,-7.611122934341196800e-01,-1.821282986837452267e+00,9.810000000000000497e+00
1.880000000000000115e+00,5.812431513988998155e-01,2.386222432956533468e-01,0.000000000000000000e+00,-7.496538865207408309e-01,-1.826029214384163435e+00,9.810000000000000497e+00
1.890000000000000124e+00,5.827309760647262360e-01,2.349654986976295323e-01,0.000000000000000000e+00,-7.381658845555351123e-01,-1.830703353424153690e+00,9.810000000000000497e+00
1.900000000000000133e+00,5.841957955094129185e-01,2.312994780640425518e-01,0.000000000000000000e+00,-7.266487410651495393e-01,-1.835305219430416690e+00,9.810000000000000497e+00
1.910000000000000142e+00,5.856375519043963696e-01,2.276243261231097326e-01,0.000000000000000000e+00,-7.151029107266888563e-01,-1.839834630729162868e+00,9.810000000000000497e+00
1.919999999999999929e+00,5.870561883316025575e-01,2.239401879635369852e-01,0.000000000000000000e+00,-7.035288493497652285e-01,-1.844291408506988805e+00,9.810000000000000497e+00
1.929999999999999938e+00,5.884516487856947808e-01,2.202472090287902751e-01,0.000000000000000000e+00,-6.919270138585030816e-01,-1.848675376817939808e+00,9.810000000000000497e+00
1.939999999999999947e+00,5.898238781762834559e-01,2.165455351113549087e-01,0.000000000000000000e+00,-6.802978622735031955e-01,-1.852986362590453240e+00,9.810000000000000497e+00
1.949999999999999956e+00,5.911728223301020435e-01,2.128353123469785835e-01,0.000000000000000000e+00,-6.686418536937569490e-01,-1.857224195634192609e+00,9.810000000000000497e+00
1.959999999999999964e+00,5.924984279931450049e-01,2.091166872089031958e-01,0.000000000000000000e+00,-6.569594482785249268e-01,-1.861388708646765311e+00,9.810000000000000497e+00
1.969999999999999973e+00,5.938006428327706754e-01,2.053898065020819397e-01,0.000000000000000000e+00,-6.452511072291697847e-01,-1.865479737220328893e+00,9.810000000000000497e+00
1.979999999999999982e+00,5.950794154397667235e-01,2.016548173573837754e-01,0.000000000000000000e+00,-6.335172927709483703e-01,-1.869497119848079647e+00,9.810000000000000497e+00
1.989999999999999991e+00,5.963346953303805265e-01,1.979118672257845490e-01,0.000000000000000000e+00,-6.217584681347633202e-01,-1.873440697930631060e+00,9.810000000000000497e+00
2.000000000000000000e+00,5.975664329483111326e-01,1.941611038725466754e-01,0.000000000000000000e+00,-6.099750975388773533e-01,-1.877310315782271921e+00,9.810000000000000497e+00
2.010000000000000231e+00,5.987745796666666953e-01,1.904026753713849718e-01,0.000000000000000000e+00,-5.981676461705852654e-01,-1.881105820637116288e+00,9.810000000000000497e+00
2.020000000000000018e+00,5.999590877898831609e-01,1.866367300986211952e-01,0.000000000000000000e+00,-5.863365801678493971e-01,-1.884827062655130669e+00,9.810000000000000497e+00
2.030000000000000249e+00,6.011199105556083166e-01,1.828634167273263667e-01,0.000000000000000000e+00,-5.744823666008974650e-01,-1.888473894928052621e+00,9.810000000000000497e+00
2.040000000000000036e+00,6.022570021365467596e-01,1.790828842214516325e-01,0.000000000000000000e+00,-5.626054734537839774e-01,-1.892046173485187444e+00,9.810000000000000497e+00
2.049999999999999822e+00,6.033703176422700043e-01,1.752952818299468585e-01,0.000000000000000000e+00,-5.507063696059134594e-01,-1.895543757299095411e+00,9.810000000000000497e+00
2.060000000000000053e+00,6.044598131209883984e-01,1.715007590808687310e-01,0.000000000000000000e+00,-5.387855248135302588e-01,-1.898966508291156208e+00,9.810000000000000497e+00
2.069999999999999840e+00,6.055254455612855136e-01,1.676994657754787288e-01,0.000000000000000000e+00,-5.268434096911769338e-01,-1.902314291337020791e+00,9.810000000000000497e+00
2.080000000000000071e+00,6.065671728938176743e-01,1.638915519823272438e-01,0.000000000000000000e+00,-5.148804956931090082e-01,-1.905586974271947343e+00,9.810000000000000497e+00
2.089999999999999858e+00,6.075849539929731868e-01,1.600771680313309020e-01,0.000000000000000000e+00,-5.028972550946880782e-01,-1.908784427896017100e+00,9.810000000000000497e+00
2.100000000000000089e+00,6.085787486784972611e-01,1.562564645078364511e-01,0.000000000000000000e+00,-4.908941609737332290e-01,-1.911906525979236049e+00,9.810000000000000497e+00
2.109999999999999876e+00,6.095485177170771873e-01,1.524295922466774034e-01,0.000000000000000000e+00,-4.788716871918494156e-01,-1.914953145266517609e+00,9.810000000000000497e+00
2.120000000000000107e+00,6.104942228238918744e-01,1.485967023262176057e-01,0.000000000000000000e+00,-4.668303083757145977e-01,-1.917924165482548959e+00,9.810000000000000497e+00
2.129999999999999893e+00,6.114158266641230854e-01,1.447579460623882874e-01,0.000000000000000000e+00,-4.547704998983465585e-01,-1.920819469336539465e+00,9.810000000000000497e+00
2.140000000000000124e+00,6.123132928544291476e-01,1.409134750027137006e-01,0.000000000000000000e+00,-4.426927378603343621e-01,-1.923638942526850082e+00,9.810000000000000497e+00
2.149999999999999911e+00,6.131865859643814698e-01,1.370634409203286830e-01,0.000000000000000000e+00,-4.305974990710432215e-01,-1.926382473745507085e+00,9.810000000000000497e+00
2.160000000000000142e+00,6.140356715178637570e-01,1.332079958079860349e-01,0.000000000000000000e+00,-4.184852610297888909e-01,-1.929049954682596102e+00,9.810000000000000497e+00
2.169999999999999929e+00,6.148605159944318110e-01,1.293472918720577902e-01,0.000000000000000000e+00,-4.063565019069915185e-01,-1.931641280030536700e+00,9.810000000000000497e+00
2.180000000000000160e+00,6.156610868306383599e-01,1.254814815265243577e-01,0.000000000000000000e+00,-3.942117005252922524e-01,-1.934156347488241279e+00,9.810000000000000497e+00
2.189999999999999947e+00,6.164373524213174749e-01,1.216107173869590830e-01,0.000000000000000000e+00,-3.820513363406551899e-01,-1.936595057765153172e+00,9.810000000000000497e+00
2.200000000000000178e+00,6.171892821208326829e-01,1.177351522645020132e-01,0.000000000000000000e+00,-3.698758894234352446e-01,-1.938957314585166403e+00,9.810000000000000497e+00
2.209999999999999964e+00,6.179168462442872212e-01,1.138549391598286664e-01,0.000000000000000000e+00,-3.576858404394306357e-01,-1.941243024690426422e+00,9.810000000000000497e+00
2.220000000000000195e+00,6.186200160686949889e-01,1.099702312571080587e-01,0.000000000000000000e+00,-3.454816706309013497e-01,-1.943452097845012050e+00,9.810000000000000497e+00
2.229999999999999982e+00,6.192987638341156398e-01,1.060811819179567489e-01,0.000000000000000000e+00,-3.332638617975753337e-01,-1.945584446838497961e+00,9.810000000000000497e+00
2.240000000000000213e+00,6.199530627447493725e-01,1.021879446753831133e-01,0.000000000000000000e+00,-3.210328962776238249e-01,-1.947639987489396596e+00,9.810000000000000497e+00
2.250000000000000000e+00,6.205828869699956396e-01,9.829067322772776227e-02,0.000000000000000000e+00,-3.087892569286244671e-01,-1.949618638648483282e+00,9.810000000000000497e+00
2.260000000000000231e+00,6.211882116454724434e-01,9.438952143259382588e-02,0.000000000000000000e+00,-2.965334271084931195e-01,-1.951520322201997892e+00,9.810000000000000497e+00
2.270000000000000018e+00,6.217690128739979949e-01,9.048464330077447826e-02,0.000000000000000000e+00,-2.842658906564060062e-01,-1.953344963074729712e+00,9.810000000000000497e+00
2.280000000000000249e+00,6.223252677265344035e-01,8.657619299017214887e-02,0.000000000000000000e+00,-2.719871318736969967e-01,-1.955092489232981734e+00,9.810000000000000497e+00
2.290000000000000036e+00,6.228569542430926198e-01,8.266432479971287661e-02,0.000000000000000000e+00,-2.596976355047385110e-01,-1.956762831687413495e+00,9.810000000000000497e+00
2.300000000000000266e+00,6.233640514335990757e-01,7.874919316325425245e-02,0.000000000000000000e+00,-2.473978867178031060e-01,-1.958355924495764899e+00,9.810000000000000497e+00
2.310000000000000053e+00,6.238465392787252428e-01,7.483095264349003128e-02,0.000000000000000000e+00,-2.350883710859139886e-01,-1.959871704765459688e+00,9.810000000000000497e+00
2.319999999999999840e+00,6.243043987306770015e-01,7.090975792584654214e-02,0.000000000000000000e+00,-2.227695745676701311e-01,-1.961310112656087901e+00,9.810000000000000497e+00
2.330000000000000071e+00,6.247376117139472607e-01,6.698576381237697497e-02,0.000000000000000000e+00,-2.104419834880645046e-01,-1.962671091381769539e+00,9.810000000000000497e+00
2.339999999999999858e+00,6.251461611260292761e-01,6.305912521565021356e-02,0.000000000000000000e+00,-1.981060845192856024e-01,-1.963954587213394554e+00,9.810000000000000497e+00
2.350000000000000089e+00,6.255300308380915553e-01,5.912999715263419359e-02,0.000000000000000000e+00,-1.857623646615009505e-01,-1.965160549480745145e+00,9.810000000000000497e+00
2.359999999999999876e+00,6.258892056956154581e-01,5.519853473857763704e-02,0.000000000000000000e+00,-1.734113112236364829e-01,-1.966288930574496385e+00,9.810000000000000497e+00
2.370000000000000107e+00,6.262236715189923864e-01,5.126489318088448682e-02,0.000000000000000000e+00,-1.610534118041321849e-01,-1.967339685948094052e+00,9.810000000000000497e+00
2.379999999999999893e+00,6.265334151040844457e-01,4.732922777298810557e-02,0.000000000000000000e+00,-1.486891542716974601e-01,-1.968312774119515884e+00,9.810000000000000497e+00
2.390000000000000124e+00,6.268184242227451408e-01,4.339169388821988160e-02,0.000000000000000000e+00,-1.363190267460487048e-01,-1.969208156672906718e+00,9.810000000000000497e+00
2.399999999999999911e+00,6.270786876233026552e-01,3.945244697367555897e-02,0.000000000000000000e+00,-1.239435175786400140e-01,-1.970025798260096384e+00,9.810000000000000497e+00
2.410000000000000142e+00,6.273141950310034964e-01,3.551164254407785520e-02,0.000000000000000000e+00,-1.115631153333817294e-01,-1.970765666601995481e+00,9.810000000000000497e+00
2.419999999999999929e+00,6.275249371484185046e-01,3.156943617563845450e-02,0.000000000000000000e+00,-9.917830876735761469e-02,-1.971427732489868134e+00,9.810000000000000497e+00
2.430000000000000160e+00,6.277109056558096700e-01,2.762598349991423133e-02,0.000000000000000000e+00,-8.678958681152339205e-02,-1.972011969786487295e+00,9.810000000000000497e+00
2.439999999999999947e+00,6.278720932114587594e-01,2.368144019766483394e-02,0.000000000000000000e+00,-7.439743855140985851e-02,-1.972518355427164582e+00,9.810000000000000497e+00
2.450000000000000178e+00,6.280084934519570838e-01,1.973596199270527540e-02,0.000000000000000000e+00,-6.200235320781026516e-02,-1.972946869420662219e+00,9.810000000000000497e+00
2.459999999999999964e+00,6.281201009924566314e-01,1.578970464575990551e-02,0.000000000000000000e+00,-4.960482011747194275e-02,-1.973297494849980849e+00,9.810000000000000497e+00
2.470000000000000195e+00,6.282069114268830079e-01,1.184282394831128252e-02,0.000000000000000000e+00,-3.720532871377199569e-02,-1.973570217873029442e+00,9.810000000000000497e+00
2.479999999999999982e+00,6.282689213281087426e-01,7.895475716451483966e-03,0.000000000000000000e+00,-2.480436850740059054e-02,-1.973765027723169974e+00,9.810000000000000497e+00
2.490000000000000213e+00,6.283061282480890686e-01,3.947815784729340888e-03,0.000000000000000000e+00,-1.240242906703152050e-02,-1.973881916709643081e+00,9.810000000000000497e+00
2.500000000000000000e+00,6.283185307179586232e-01,3.847341387443579546e-17,0.000000000000000000e+00,-1.208677943864471187e-16,-1.973920880217871598e+00,9.810000000000000497e+00
2.510000000000000231e+00,6.283061282480890686e-01,-3.947815784729403338e-03,0.000000000000000000e+00,1.240242906703171825e-02,-1.973881916709643081e+00,9.810000000000000497e+00
2.520000000000000018e+00,6.282689213281087426e-01,-7.895475716451407638e-03,0.000000000000000000e+00,2.480436850740034768e-02,-1.973765027723169974e+00,9.810000000000000497e+00
2.530000000000000249e+00,6.282069114268830079e-01,-1.184282394831134670e-02,0.000000000000000000e+00,3.720532871377218997e-02,-1.973570217873029442e+00,9.810000000000000497e+00
2.540000000000000036e+00,6.281201009924566314e-01,-1.578970464575982571e-02,0.000000000000000000e+00,4.960482011747169989e-02,-1.973297494849980849e+00,9.810000000000000497e+00
2.550000000000000266e+00,6.280084934519570838e-01,-1.973596199270548010e-02,0.000000000000000000e+00,6.200235320781091047e-02,-1.972946869420662219e+00,9.810000000000000497e+00
2.560000000000000053e+00,6.278720932114587594e-01,-2.368144019766476108e-02,0.000000000000000000e+00,7.439743855140962259e-02,-1.972518355427164582e+00,9.810000000000000497e+00
2.569999999999999840e+00,6.277109056558096700e-01,-2.762598349991415500e-02,0.000000000000000000e+00,8.678958681152315613e-02,-1.972011969786487295e+00,9.810000000000000497e+00
2.580000000000000071e+00,6.275249371484185046e-01,-3.156943617563837123e-02,0.000000000000000000e+00,9.917830876735736489e-02,-1.971427732489868134e+00,9.810000000000000497e+00
2.589999999999999858e+00,6.273141950310034964e-01,-3.551164254407777193e-02,0.000000000000000000e+00,1.115631153333814934e-01,-1.970765666601995481e+00,9.810000000000000497e+00
2.600000000000000089e+00,6.270786876233026552e-01,-3.945244697367548264e-02,0.000000000000000000e+00,1.239435175786397642e-01,-1.970025798260096384e+00,9.810000000000000497e+00
2.609999999999999876e+00,6.268184242227451408e-01,-4.339169388821980528e-02,0.000000000000000000e+00,1.363190267460484550e-01,-1.969208156672906718e+00,9.810000000000000497e+00
2.620000000000000107e+00,6.265334151040844457e-01,-4.732922777298802924e-02,0.000000000000000000e+00,1.486891542716972103e-01,-1.968312774119515884e+00,9.810000000000000497e+00
2.629999999999999893e+00,6.262236715189923864e-01,-5.126489318088441050e-02,0.000000000000000000e+00,1.610534118041319351e-01,-1.967339685948094052e+00,9.810000000000000497e+00
2.640000000000000124e+00,6.258892056956154581e-01,-5.519853473857756071e-02,0.000000000000000000e+00,1.734113112236362608e-01,-1.966288930574496385e+00,9.810000000000000497e+00
2.649999999999999911e+00,6.255300308380915553e-01,-5.912999715263411032e-02,0.000000000000000000e+00,1.857623646615007285e-01,-1.965160549480745145e+00,9.810000000000000497e+00
2.660000000000000142e+00,6.251461611260292761e-01,-6.305912521565014417e-02,0.000000000000000000e+00,1.981060845192853526e-01,-1.963954587213394554e+00,9.810000000000000497e+00
2.669999999999999929e+00,6.247376117139472607e-01,-6.698576381237689170e-02,0.000000000000000000e+00,2.104419834880642548e-01,-1.962671091381769539e+00,9.810000000000000497e+00
2.680000000000000160e+00,6.243043987306770015e-01,-7.090975792584647275e-02,0.000000000000000000e+00,2.227695745676698813e-01,-1.961310112656087901e+00,9.810000000000000497e+00
2.689999999999999947e+00,6.238465392787252428e-01,-7.483095264348994802e-02,0.000000000000000000e+00,2.350883710859137388e-01,-1.959871704765459688e+00,9.810000000000000497e+00
2.700000000000000178e+00,6.233640514335990757e-01,-7.874919316325446061e-02,0.000000000000000000e+00,2.473978867178037722e-01,-1.958355924495764677e+00,9.810000000000000497e+00
2.709999999999999964e+00,6.228569542430926198e-01,-8.266432479971280722e-02,0.000000000000000000e+00,2.596976355047382889e-01,-1.956762831687413495e+00,9.810000000000000497e+00
2.720000000000000195e+00,6.223252677265344035e-01,-8.657619299017220438e-02,0.000000000000000000e+00,2.719871318736971078e-01,-1.955092489232981734e+00,9.810000000000000497e+00
2.729999999999999982e+00,6.217690128739981059e-01,-9.048464330077440887e-02,0.000000000000000000e+00,2.842658906564057841e-01,-1.953344963074729934e+00,9.810000000000000497e+00
2.740000000000000213e+00,6.211882116454723324e-01,-9.438952143259388139e-02,0.000000000000000000e+00,2.965334271084932860e-01,-1.951520322201997670e+00,9.810000000000000497e+00
2.750000000000000000e+00,6.205828869699956396e-01,-9.829067322772769288e-02,0.000000000000000000e+00,3.087892569286242450e-01,-1.949618638648483282e+00,9.810000000000000497e+00
2.760000000000000231e+00,6.199530627447493725e-01,-1.021879446753831688e-01,0.000000000000000000e+00,3.210328962776239914e-01,-1.947639987489396596e+00,9.810000000000000497e+00
2.770000000000000018e+00,6.192987638341156398e-01,-1.060811819179566656e-01,0.000000000000000000e+00,3.332638617975750561e-01,-1.945584446838497961e+00,9.810000000000000497e+00
2.780000000000000249e+00,6.186200160686949889e-01,-1.099702312571081281e-01,0.000000000000000000e+00,3.454816706309015162e-01,-1.943452097845012050e+00,9.810000000000000497e+00
2.790000000000000036e+00,6.179168462442872212e-01,-1.138549391598285970e-01,0.000000000000000000e+00,3.576858404394304136e-01,-1.941243024690426422e+00,9.810000000000000497e+00
2.800000000000000266e+00,6.171892821208326829e-01,-1.177351522645022075e-01,0.000000000000000000e+00,3.698758894234358552e-01,-1.938957314585166181e+00,9.810000000000000497e+00
2.810000000000000053e+00,6.164373524213174749e-01,-1.216107173869590136e-01,0.000000000000000000e+00,3.820513363406549678e-01,-1.936595057765153172e+00,9.810000000000000497e+00
2.819999999999999840e+00,6.156610868306383599e-01,-1.254814815265242745e-01,0.000000000000000000e+00,3.942117005252920303e-01,-1.934156347488241279e+00,9.810000000000000497e+00
2.830000000000000071e+00,6.148605159944318110e-01,-1.293472918720577347e-01,0.000000000000000000e+00,4.063565019069912965e-01,-1.931641280030536700e+00,9.810000000000000497e+00
2.839999999999999858e+00,6.140356715178637570e-01,-1.332079958079859794e-01,0.000000000000000000e+00,4.184852610297886688e-01,-1.929049954682596102e+00,9.810000000000000497e+00
2.850000000000000089e+00,6.131865859643815808e-01,-1.370634409203285997e-01,0.000000000000000000e+00,4.305974990710429440e-01,-1.926382473745507307e+00,9.810000000000000497e+00
2.859999999999999876e+00,6.123132928544291476e-01,-1.409134750027136174e-01,0.000000000000000000e+00,4.426927378603340846e-01,-1.923638942526850304e+00,9.810000000000000497e+00
2.870000000000000107e+00,6.114158266641230854e-01,-1.447579460623882042e-01,0.000000000000000000e+00,4.547704998983462810e-01,-1.920819469336539687e+00,9.810000000000000497e+00
2.879999999999999893e+00,6.104942228238919855e-01,-1.485967023262175501e-01,0.000000000000000000e+00,4.668303083757143757e-01,-1.917924165482549181e+00,9.810000000000000497e+00
2.890000000000000124e+00,6.095485177170771873e-01,-1.524295922466773479e-01,0.000000000000000000e+00,4.788716871918492490e-01,-1.914953145266517609e+00,9.810000000000000497e+00
2.899999999999999911e+00,6.085787486784973721e-01,-1.562564645078363679e-01,0.000000000000000000e+00,4.908941609737330070e-01,-1.911906525979236271e+00,9.810000000000000497e+00
2.910000000000000142e+00,6.075849539929731868e-01,-1.600771680313308465e-01,0.000000000000000000e+00,5.028972550946878561e-01,-1.908784427896017100e+00,9.810000000000000497e+00
2.919999999999999929e+00,6.065671728938176743e-01,-1.638915519823271605e-01,0.000000000000000000e+00,5.148804956931087862e-01,-1.905586974271947343e+00,9.810000000000000497e+00
2.930000000000000160e+00,6.055254455612855136e-01,-1.676994657754786455e-01,0.000000000000000000e+00,5.268434096911767117e-01,-1.902314291337020791e+00,9.810000000000000497e+00
2.939999999999999947e+00,6.044598131209883984e-01,-1.715007590808686477e-01,0.000000000000000000e+00,5.387855248135300368e-01,-1.898966508291156208e+00,9.810000000000000497e+00
2.950000000000000178e+00,6.033703176422700043e-01,-1.752952818299467752e-01,0.000000000000000000e+00,5.507063696059131264e-01,-1.895543757299095633e+00,9.810000000000000497e+00
2.959999999999999964e+00,6.022570021365467596e-01,-1.790828842214515493e-01,0.000000000000000000e+00,5.626054734537837554e-01,-1.892046173485187666e+00,9.810000000000000497e+00
2.970000000000000195e+00,6.011199105556082056e-01,-1.828634167273264499e-01,0.000000000000000000e+00,5.744823666008976870e-01,-1.888473894928052399e+00,9.810000000000000497e+00
2.979999999999999982e+00,5.999590877898832719e-01,-1.866367300986211120e-01,0.000000000000000000e+00,5.863365801678491751e-01,-1.884827062655130891e+00,9.810000000000000497e+00
2.990000000000000213e+00,5.987745796666665843e-01,-1.904026753713850273e-01,0.000000000000000000e+00,5.981676461705853765e-01,-1.881105820637116066e+00,9.810000000000000497e+00
3.000000000000000000e+00,5.975664329483112436e-01,-1.941611038725465921e-01,0.000000000000000000e+00,6.099750975388771312e-01,-1.877310315782272143e+00,9.810000000000000497e+00
3.010000000000000231e+00,5.963346953303805265e-01,-1.979118672257844935e-01,0.000000000000000000e+00,6.217584681347630982e-01,-1.873440697930631060e+00,9.810000000000000497e+00
3.020000000000000018e+00,5.950794154397667235e-01,-2.016548173573837199e-01,0.000000000000000000e+00,6.335172927709481483e-01,-1.869497119848079647e+00,9.810000000000000497e+00
3.030000000000000249e+00,5.938006428327706754e-01,-2.053898065020819952e-01,0.000000000000000000e+00,6.452511072291698957e-01,-1.865479737220328893e+00,9.810000000000000497e+00
3.040000000000000036e+00,5.924984279931451159e-01,-2.091166872089031403e-01,0.000000000000000000e+00,6.569594482785247047e-01,-1.861388708646765533e+00,9.810000000000000497e+00
3.050000000000000266e+00,5.911728223301020435e-01,-2.128353123469786390e-01,0.000000000000000000e+00,6.686418536937570600e-01,-1.857224195634192609e+00,9.810000000000000497e+00
3.060000000000000053e+00,5.898238781762834559e-01,-2.165455351113548532e-01,0.000000000000000000e+00,6.802978622735029735e-01,-1.852986362590453240e+00,9.810000000000000497e+00
3.070000000000000284e+00,5.884516487856946698e-01,-2.202472090287903583e-01,0.000000000000000000e+00,6.919270138585033036e-01,-1.848675376817939586e+00,9.810000000000000497e+00
3.080000000000000071e+00,5.870561883316026686e-01,-2.239401879635369019e-01,0.000000000000000000e+00,7.035288493497650064e-01,-1.844291408506989027e+00,9.810000000000000497e+00
3.089999999999999858e+00,5.856375519043963696e-01,-2.276243261231096771e-01,0.000000000000000000e+00,7.151029107266886342e-01,-1.839834630729162868e+00,9.810000000000000497e+00
3.100000000000000089e+00,5.841957955094129185e-01,-2.312994780640426074e-01,0.000000000000000000e+00,7.266487410651497614e-01,-1.835305219430416468e+00,9.810000000000000497e+00
3.109999999999999876e+00,5.827309760647262360e-01,-2.349654986976294768e-01,0.000000000000000000e+00,7.381658845555348902e-01,-1.830703353424153690e+00,9.810000000000000497e+00
3.120000000000000107e+00,5.812431513988998155e-01,-2.386222432956532635e-01,0.000000000000000000e+00,7.496538865207406088e-01,-1.826029214384163435e+00,9.810000000000000497e+00
3.129999999999999893e+00,5.797323802487038824e-01,-2.422695674960984591e-01,0.000000000000000000e+00,7.611122934341194579e-01,-1.821282986837452489e+00,9.810000000000000497e+00
3.140000000000000124e+00,5.781987222567964713e-01,-2.459073273088508704e-01,0.000000000000000000e+00,7.725406529373866071e-01,-1.816464858156956907e+00,9.810000000000000497e+00
3.149999999999999911e+00,5.766422379693691980e-01,-2.495353791213817674e-01,0.000000000000000000e+00,7.839385138584767931e-01,-1.811575018554147487e+00,9.810000000000000497e+00
3.160000000000000142e+00,5.750629888337563944e-01,-2.531535797044182079e-01,0.000000000000000000e+00,7.953054262293585142e-01,-1.806613661071518440e+00,9.810000000000000497e+00
3.169999999999999929e+00,5.734610371960102704e-01,-2.567617862175960441e-01,0.000000000000000000e+00,8.066409413037928244e-01,-1.801580981574968821e+00,9.810000000000000497e+00
3.180000000000000160e+00,5.718364462984379948e-01,-2.603598562151007711e-01,0.000000000000000000e+00,8.179446115750553803e-01,-1.796477178746067160e+00,9.810000000000000497e+00
3.189999999999999947e+00,5.701892802771068025e-01,-2.639476476512895298e-01,0.000000000000000000e+00,8.292159907935984231e-01,-1.791302454074210182e+00,9.810000000000000497e+00
3.200000000000000178e+00,5.685196041593105765e-01,-2.675250188862998146e-01,0.000000000000000000e+00,8.404546339846701297e-01,-1.786057011848667386e+00,9.810000000000000497e+00
3.209999999999999964e+00,5.668274838610039001e-01,-2.710918286916403908e-01,0.000000000000000000e+00,8.516600974658802281e-01,-1.780741059150516836e+00,9.810000000000000497e+00
3.220000000000000195e+00,5.651129861841981405e-01,-2.746479362557683324e-01,0.000000000000000000e+00,8.628319388647196497e-01,-1.775354805844467254e+00,9.810000000000000497e+00
3.229999999999999982e+00,5.633761788143265559e-01,-2.781932011896449675e-01,0.000000000000000000e+00,8.739697171360160111e-01,-1.769898464570577978e+00,9.810000000000000497e+00
3.240000000000000213e+00,5.616171303175697682e-01,-2.817274835322819415e-01,0.000000000000000000e+00,8.850729925793563435e-01,-1.764372250735858794e+00,9.810000000000000497e+00
3.250000000000000000e+00,5.598359101381505942e-01,-2.852506437562637442e-01,0.000000000000000000e+00,8.961413268564374368e-01,-1.758776382505769398e+00,9.810000000000000497e+00
3.260000000000000231e+00,5.580325885955917942e-01,-2.887625427732574135e-01,0.000000000000000000e+00,9.071742830083739939e-01,-1.753111080795606513e+00,9.810000000000000497e+00
3.270000000000000018e+00,5.562072368819400703e-01,-2.922630419395030876e-01,0.000000000000000000e+00,9.181714254729484992e-01,-1.747376569261780865e+00,9.810000000000000497e+00
3.280000000000000249e+00,5.543599270589555372e-01,-2.957520030612874606e-01,0.000000000000000000e+00,9.291323201018066857e-01,-1.741573074292988466e+00,9.810000000000000497e+00
3.290000000000000036e+00,5.524907320552669976e-01,-2.992292884003995290e-01,0.000000000000000000e+00,9.400565341775966033e-01,-1.735700825001273762e+00,9.810000000000000497e+00
3.300000000000000266e+00,5.505997256634925785e-01,-3.026947606795681311e-01,0.000000000000000000e+00,9.509436364310517309e-01,-1.729760053212983761e+00,9.810000000000000497e+00
3.310000000000000053e+00,5.486869825373268394e-01,-3.061482830878813344e-01,0.000000000000000000e+00,9.617931970580162471e-01,-1.723750993459617131e+00,9.810000000000000497e+00
3.320000000000000284e+00,5.467525781885927971e-01,-3.095897192861885028e-01,0.000000000000000000e+00,9.726047877364161209e-01,-1.717673882968562049e+00,9.810000000000000497e+00
3.330000000000000071e+00,5.447965889842626419e-01,-3.130189334124802714e-01,0.000000000000000000e+00,9.833779816431605925e-01,-1.711528961653737468e+00,9.810000000000000497e+00
3.339999999999999858e+00,5.428190921434403737e-01,-3.164357900872554197e-01,0.000000000000000000e+00,9.941123534710035736e-01,-1.705316472106113146e+00,9.810000000000000497e+00
3.350000000000000089e+00,5.408201657343153501e-01,-3.198401544188628209e-01,0.000000000000000000e+00,1.004807479445324558e+00,-1.699036659584139519e+00,9.810000000000000497e+00
3.359999999999999876e+00,5.387998886710796409e-01,-3.232318920088278480e-01,0.000000000000000000e+00,1.015462937340862792e+00,-1.692689772004062121e+00,9.810000000000000497e+00
3.370000000000000107e+00,5.367583407108124094e-01,-3.266108689571579071e-01,0.000000000000000000e+00,1.026078306498386050e+00,-1.686276059930135407e+00,9.810000000000000497e+00
3.379999999999999893e+00,5.346956024503314309e-01,-3.299769518676288205e-01,0.000000000000000000e+00,1.036653167841295353e+00,-1.679795776564729781e+00,9.810000000000000497e+00
3.390000000000000124e+00,5.326117553230111934e-01,-3.333300078530511690e-01,0.000000000000000000e+00,1.047187103892173621e+00,-1.673249177738336479e+00,9.810000000000000497e+00
3.399999999999999911e+00,5.305068815955682471e-01,-3.366699045405158741e-01,0.000000000000000000e+00,1.057679698789261602e+00,-1.666636521899467427e+00,9.810000000000000497e+00
3.410000000000000142e+00,5.283810643648130245e-01,-3.399965100766206283e-01,0.000000000000000000e+00,1.068130538302879406e+00,-1.659958070104452510e+00,9.810000000000000497e+00
3.419999999999999929e+00,5.262343875543701310e-01,-3.433096931326747314e-01,0.000000000000000000e+00,1.078539209851777203e+00,-1.653214086007133377e+00,9.810000000000000497e+00
3.430000000000000160e+00,5.240669359113641068e-01,-3.466093229098843320e-01,0.000000000000000000e+00,1.088905302519425078e+00,-1.646404835848454651e+00,9.810000000000000497e+00
3.439999999999999947e+00,5.218787950030746581e-01,-3.498952691445157415e-01,0.000000000000000000e+00,1.099228407070234059e+00,-1.639530588445953008e+00,9.810000000000000497e+00
3.450000000000000178e+00,5.196700512135580263e-01,-3.531674021130379315e-01,0.000000000000000000e+00,1.109508115965712305e+00,-1.632591615183145661e+00,9.810000000000000497e+00
3.459999999999999964e+00,5.174407917402373824e-01,-3.564255926372439376e-01,0.000000000000000000e+00,1.119744023380553788e+00,-1.625588189998816047e+00,9.810000000000000497e+00
3.470000000000000195e+00,5.151911045904591369e-01,-3.596697120893513899e-01,0.000000000000000000e+00,1.129935725218662368e+00,-1.618520589376197139e+00,9.810000000000000497e+00
3.479999999999999982e+00,5.129210785780203841e-01,-3.628996323970783422e-01,0.000000000000000000e+00,1.140082819129097702e+00,-1.611389092332061734e+00,9.810000000000000497e+00
3.490000000000000213e+00,5.106308033196607088e-01,-3.661152260487021692e-01,0.000000000000000000e+00,1.150184904521969198e+00,-1.604193980405700604e+00,9.810000000000000497e+00
3.500000000000000000e+00,5.083203692315260147e-01,-3.693163660980912644e-01,0.000000000000000000e+00,1.160241582584242037e+00,-1.596935537647813153e+00,9.810000000000000497e+00
3.510000000000000231e+00,5.059898675255979361e-01,-3.725029261697177518e-01,0.000000000000000000e+00,1.170252456295486354e+00,-1.589614050609291063e+00,9.810000000000000497e+00
3.520000000000000018e+00,5.036393902060932737e-01,-3.756747804636462185e-01,0.000000000000000000e+00,1.180217130443549367e+00,-1.582229808329906007e+00,9.810000000000000497e+00
3.530000000000000249e+00,5.012690300658322329e-01,-3.788318037605002409e-01,0.000000000000000000e+00,1.190135211640157786e+00,-1.574783102326899664e+00,9.810000000000000497e+00
3.540000000000000036e+00,4.988788806825740774e-01,-3.819738714264057089e-01,0.000000000000000000e+00,1.200006308336448502e+00,-1.567274226583473817e+00,9.810000000000000497e+00
3.550000000000000266e+00,4.964690364153241386e-01,-3.851008594179112787e-01,0.000000000000000000e+00,1.209830030838425774e+00,-1.559703477537185856e+00,9.810000000000000497e+00
3.560000000000000053e+00,4.940395924006077966e-01,-3.882126442868851779e-01,0.000000000000000000e+00,1.219605991322346039e+00,-1.552071154068245251e+00,9.810000000000000497e+00
3.570000000000000284e+00,4.915906445487144283e-01,-3.913091031853894730e-01,0.000000000000000000e+00,1.229333803850029883e+00,-1.544377557487712549e+00,9.810000000000000497e+00
3.580000000000000071e+00,4.891222895399126025e-01,-3.943901138705281917e-01,0.000000000000000000e+00,1.239013084384093411e+00,-1.536622991525609105e+00,9.810000000000000497e+00
3.589999999999999858e+00,4.866346248206310787e-01,-3.974555547092755159e-01,0.000000000000000000e+00,1.248643450803116117e+00,-1.528807762318919794e+00,9.810000000000000497e+00
3.600000000000000089e+00,4.841277485996136609e-01,-4.005053046832758867e-01,0.000000000000000000e+00,1.258224522916721266e+00,-1.520932178399512447e+00,9.810000000000000497e+00
3.609999999999999876e+00,4.816017598440409664e-01,-4.035392433936221823e-01,0.000000000000000000e+00,1.267755922480586994e+00,-1.512996550681954933e+00,9.810000000000000497e+00
3.620000000000000107e+00,4.790567582756238285e-01,-4.065572510656092486e-01,0.000000000000000000e+00,1.277237273211379032e+00,-1.505001192451241199e+00,9.810000000000000497e+00
3.629999999999999893e+00,4.764928443666667790e-01,-4.095592085534614513e-01,0.000000000000000000e+00,1.286668200801604600e+00,-1.496946419350425161e+00,9.810000000000000497e+00
3.640000000000000124e+00,4.739101193361004438e-01,-4.125449973450379670e-01,0.000000000000000000e+00,1.296048332934391922e+00,-1.488832549368155345e+00,9.810000000000000497e+00
3.649999999999999911e+00,4.713086851454867943e-01,-4.155144995665093766e-01,0.000000000000000000e+00,1.305377299298185134e+00,-1.480659902826126251e+00,9.810000000000000497e+00
3.660000000000000142e+00,4.686886444949932562e-01,-4.184675979870127738e-01,0.000000000000000000e+00,1.314654731601366144e+00,-1.472428802366429146e+00,9.810000000000000497e+00
3.669999999999999929e+00,4.660501008193385641e-01,-4.214041760232788980e-01,0.000000000000000000e+00,1.323880263586793005e+00,-1.464139572938816469e+00,9.810000000000000497e+00
3.680000000000000160e+00,4.633931582837092500e-01,-4.243241177442351741e-01,0.000000000000000000e+00,1.333053531046259677e+00,-1.455792541787873207e+00,9.810000000000000497e+00
3.689999999999999947e+00,4.607179217796469328e-01,-4.272273078755821074e-01,0.000000000000000000e+00,1.342174171834873642e+00,-1.447388038440095670e+00,9.810000000000000497e+00
3.700000000000000178e+00,4.580244969209082417e-01,-4.301136318043444762e-01,0.000000000000000000e+00,1.351241825885353798e+00,-1.438926394690886124e+00,9.810000000000000497e+00
3.709999999999999964e+00,4.553129900392949292e-01,-4.329829755833955462e-01,0.000000000000000000e+00,1.360256135222244200e+00,-1.430407944591451486e+00,9.810000000000000497e+00
3.720000000000000195e+00,4.525835081804550630e-01,-4.358352259359565828e-01,0.000000000000000000e+00,1.369216743976048756e+00,-1.421833024435613657e+00,9.810000000000000497e+00
3.729999999999999982e+00,4.498361590996597936e-01,-4.386702702600666082e-01,0.000000000000000000e+00,1.378123298397274432e+00,-1.413201972746540580e+00,9.810000000000000497e+00
3.740000000000000213e+00,4.470710512575459261e-01,-4.414879966330308436e-01,0.000000000000000000e+00,1.386975446870404971e+00,-1.404515130263372047e+00,9.810000000000000497e+00
3.750000000000000000e+00,4.442882938158366213e-01,-4.442882938158365658e-01,0.000000000000000000e+00,1.395772839927775788e+00,-1.395772839927776010e+00,9.810000000000000497e+00
3.760000000000000231e+00,4.414879966330308991e-01,-4.470710512575458706e-01,0.000000000000000000e+00,1.404515130263371825e+00,-1.386975446870405193e+00,9.810000000000000497e+00
3.770000000000000018e+00,4.386702702600666637e-01,-4.498361590996597381e-01,0.000000000000000000e+00,1.413201972746540358e+00,-1.378123298397274654e+00,9.810000000000000497e+00
3.780000000000000249e+00,4.358352259359564163e-01,-4.525835081804551741e-01,0.000000000000000000e+00,1.421833024435614101e+00,-1.369216743976048312e+00,9.810000000000000497e+00
3.790000000000000036e+00,4.329829755833956018e-01,-4.553129900392947627e-01,0.000000000000000000e+00,1.430407944591451042e+00,-1.360256135222244422e+00,9.810000000000000497e+00
3.800000000000000266e+00,4.301136318043443652e-01,-4.580244969209083528e-01,0.000000000000000000e+00,1.438926394690886568e+00,-1.351241825885353354e+00,9.810000000000000497e+00
3.810000000000000053e+00,4.272273078755822184e-01,-4.607179217796468218e-01,0.000000000000000000e+00,1.447388038440095448e+00,-1.342174171834873864e+00,9.810000000000000497e+00
3.820000000000000284e+00,4.243241177442350076e-01,-4.633931582837093055e-01,0.000000000000000000e+00,1.455792541787873429e+00,-1.333053531046259232e+00,9.810000000000000497e+00
3.830000000000000071e+00,4.214041760232789535e-01,-4.660501008193385086e-01,0.000000000000000000e+00,1.464139572938816247e+00,-1.323880263586793227e+00,9.810000000000000497e+00
3.839999999999999858e+00,4.184675979870128293e-01,-4.686886444949932007e-01,0.000000000000000000e+00,1.472428802366428924e+00,-1.314654731601366366e+00,9.810000000000000497e+00
3.850000000000000089e+00,4.155144995665094321e-01,-4.713086851454867388e-01,0.000000000000000000e+00,1.480659902826126029e+00,-1.305377299298185356e+00,9.810000000000000497e+00
3.859999999999999876e+00,4.125449973450380226e-01,-4.739101193361003883e-01,0.000000000000000000e+00,1.488832549368155123e+00,-1.296048332934392144e+00,9.810000000000000497e+00
3.870000000000000107e+00,4.095592085534615623e-01,-4.764928443666667235e-01,0.000000000000000000e+00,1.496946419350424939e+00,-1.286668200801604822e+00,9.810000000000000497e+00
3.879999999999999893e+00,4.065572510656093042e-01,-4.790567582756237730e-01,0.000000000000000000e+00,1.505001192451240977e+00,-1.277237273211379254e+00,9.810000000000000497e+00
3.890000000000000124e+00,4.035392433936222378e-01,-4.816017598440408554e-01,0.000000000000000000e+00,1.512996550681954711e+00,-1.267755922480587216e+00,9.810000000000000497e+00
3.899999999999999911e+00,4.005053046832759422e-01,-4.841277485996136054e-01,0.000000000000000000e+00,1.520932178399512225e+00,-1.258224522916721488e+00,9.810000000000000497e+00
3.910000000000000142e+00,3.974555547092756269e-01,-4.866346248206310232e-01,0.000000000000000000e+00,1.528807762318919572e+00,-1.248643450803116339e+00,9.810000000000000497e+00
3.919999999999999929e+00,3.943901138705283027e-01,-4.891222895399125470e-01,0.000000000000000000e+00,1.536622991525608883e+00,-1.239013084384093633e+00,9.810000000000000497e+00
3.930000000000000160e+00,3.913091031853894175e-01,-4.915906445487145393e-01,0.000000000000000000e+00,1.544377557487712771e+00,-1.229333803850029661e+00,9.810000000000000497e+00
3.939999999999999947e+00,3.882126442868852334e-01,-4.940395924006077411e-01,0.000000000000000000e+00,1.552071154068245029e+00,-1.219605991322346261e+00,9.810000000000000497e+00
3.950000000000000178e+00,3.851008594179111677e-01,-4.964690364153241942e-01,0.000000000000000000e+00,1.559703477537186078e+00,-1.209830030838425330e+00,9.810000000000000497e+00
3.959999999999999964e+00,3.819738714264057644e-01,-4.988788806825740219e-01,0.000000000000000000e+00,1.567274226583473595e+00,-1.200006308336448502e+00,9.810000000000000497e+00
3.970000000000000195e+00,3.788318037605000743e-01,-5.012690300658322329e-01,0.000000000000000000e+00,1.574783102326899886e+00,-1.190135211640157342e+00,9.810000000000000497e+00
3.979999999999999982e+00,3.756747804636463295e-01,-5.036393902060932737e-01,0.000000000000000000e+00,1.582229808329905785e+00,-1.180217130443549589e+00,9.810000000000000497e+00
3.990000000000000213e+00,3.725029261697178073e-01,-5.059898675255978251e-01,0.000000000000000000e+00,1.589614050609290841e+00,-1.170252456295486576e+00,9.810000000000000497e+00
4.000000000000000000e+00,3.693163660980914309e-01,-5.083203692315259037e-01,0.000000000000000000e+00,1.596935537647812930e+00,-1.160241582584242481e+00,9.810000000000000497e+00
4.009999999999999787e+00,3.661152260487022803e-01,-5.106308033196607088e-01,0.000000000000000000e+00,1.604193980405700382e+00,-1.150184904521969642e+00,9.810000000000000497e+00
4.020000000000000462e+00,3.628996323970784532e-01,-5.129210785780202730e-01,0.000000000000000000e+00,1.611389092332061512e+00,-1.140082819129098146e+00,9.810000000000000497e+00
4.030000000000000249e+00,3.596697120893512234e-01,-5.151911045904592479e-01,0.000000000000000000e+00,1.618520589376197361e+00,-1.129935725218661924e+00,9.810000000000000497e+00
4.040000000000000036e+00,3.564255926372439931e-01,-5.174407917402373824e-01,0.000000000000000000e+00,1.625588189998815825e+00,-1.119744023380554010e+00,9.810000000000000497e+00
4.049999999999999822e+00,3.531674021130379870e-01,-5.196700512135580263e-01,0.000000000000000000e+00,1.632591615183145661e+00,-1.109508115965712527e+00,9.810000000000000497e+00
4.060000000000000497e+00,3.498952691445155749e-01,-5.218787950030747691e-01,0.000000000000000000e+00,1.639530588445953230e+00,-1.099228407070233615e+00,9.810000000000000497e+00
4.070000000000000284e+00,3.466093229098842210e-01,-5.240669359113642178e-01,0.000000000000000000e+00,1.646404835848454873e+00,-1.088905302519424634e+00,9.810000000000000497e+00
4.080000000000000071e+00,3.433096931326748980e-01,-5.262343875543700200e-01,0.000000000000000000e+00,1.653214086007133155e+00,-1.078539209851777647e+00,9.810000000000000497e+00
4.089999999999999858e+00,3.399965100766206838e-01,-5.283810643648130245e-01,0.000000000000000000e+00,1.659958070104452288e+00,-1.068130538302879629e+00,9.810000000000000497e+00
4.099999999999999645e+00,3.366699045405162627e-01,-5.305068815955680250e-01,0.000000000000000000e+00,1.666636521899466761e+00,-1.057679698789262712e+00,9.810000000000000497e+00
4.110000000000000320e+00,3.333300078530512800e-01,-5.326117553230111934e-01,0.000000000000000000e+00,1.673249177738336257e+00,-1.047187103892174065e+00,9.810000000000000497e+00
4.120000000000000107e+00,3.299769518676288760e-01,-5.346956024503314309e-01,0.000000000000000000e+00,1.679795776564729781e+00,-1.036653167841295575e+00,9.810000000000000497e+00
4.129999999999999893e+00,3.266108689571580737e-01,-5.367583407108122984e-01,0.000000000000000000e+00,1.686276059930135185e+00,-1.026078306498386494e+00,9.810000000000000497e+00
4.139999999999999680e+00,3.232318920088279035e-01,-5.387998886710795299e-01,0.000000000000000000e+00,1.692689772004061899e+00,-1.015462937340863014e+00,9.810000000000000497e+00
4.150000000000000355e+00,3.198401544188627099e-01,-5.408201657343153501e-01,0.000000000000000000e+00,1.699036659584139741e+00,-1.004807479445324114e+00,9.810000000000000497e+00
4.160000000000000142e+00,3.164357900872555307e-01,-5.428190921434402627e-01,0.000000000000000000e+00,1.705316472106112924e+00,-9.941123534710037957e-01,9.810000000000000497e+00
4.169999999999999929e+00,3.130189334124803824e-01,-5.447965889842625309e-01,0.000000000000000000e+00,1.711528961653737246e+00,-9.833779816431609255e-01,9.810000000000000497e+00
4.179999999999999716e+00,3.095897192861886138e-01,-5.467525781885927971e-01,0.000000000000000000e+00,1.717673882968562049e+00,-9.726047877364164540e-01,9.810000000000000497e+00
4.190000000000000391e+00,3.061482830878813899e-01,-5.486869825373267284e-01,0.000000000000000000e+00,1.723750993459616909e+00,-9.617931970580164691e-01,9.810000000000000497e+00
4.200000000000000178e+00,3.026947606795679646e-01,-5.505997256634926895e-01,0.000000000000000000e+00,1.729760053212983983e+00,-9.509436364310513978e-01,9.810000000000000497e+00
4.209999999999999964e+00,2.992292884003996400e-01,-5.524907320552669976e-01,0.000000000000000000e+00,1.735700825001273540e+00,-9.400565341775969364e-01,9.810000000000000497e+00
4.219999999999999751e+00,2.957520030612875717e-01,-5.543599270589555372e-01,0.000000000000000000e+00,1.741573074292988244e+00,-9.291323201018070188e-01,9.810000000000000497e+00
4.230000000000000426e+00,2.922630419395029766e-01,-5.562072368819401813e-01,0.000000000000000000e+00,1.747376569261781087e+00,-9.181714254729480551e-01,9.810000000000000497e+00
4.240000000000000213e+00,2.887625427732575245e-01,-5.580325885955916831e-01,0.000000000000000000e+00,1.753111080795606291e+00,-9.071742830083743270e-01,9.810000000000000497e+00
4.250000000000000000e+00,2.852506437562638553e-01,-5.598359101381504832e-01,0.000000000000000000e+00,1.758776382505769176e+00,-8.961413268564377699e-01,9.810000000000000497e+00
4.259999999999999787e+00,2.817274835322820525e-01,-5.616171303175696572e-01,0.000000000000000000e+00,1.764372250735858572e+00,-8.850729925793566766e-01,9.810000000000000497e+00
4.270000000000000462e+00,2.781932011896450785e-01,-5.633761788143264448e-01,0.000000000000000000e+00,1.769898464570577756e+00,-8.739697171360163441e-01,9.810000000000000497e+00
4.280000000000000249e+00,2.746479362557682213e-01,-5.651129861841982516e-01,0.000000000000000000e+00,1.775354805844467476e+00,-8.628319388647192056e-01,9.810000000000000497e+00
4.290000000000000036e+00,2.710918286916405018e-01,-5.668274838610037891e-01,0.000000000000000000e+00,1.780741059150516614e+00,-8.516600974658805612e-01,9.810000000000000497e+00
4.299999999999999822e+00,2.675250188862999257e-01,-5.685196041593105765e-01,0.000000000000000000e+00,1.786057011848667164e+00,-8.404546339846704628e-01,9.810000000000000497e+00
4.310000000000000497e+00,2.639476476512894187e-01,-5.701892802771068025e-01,0.000000000000000000e+00,1.791302454074210404e+00,-8.292159907935979790e-01,9.810000000000000497e+00
4.320000000000000284e+00,2.603598562151006046e-01,-5.718364462984381058e-01,0.000000000000000000e+00,1.796477178746067382e+00,-8.179446115750548252e-01,9.810000000000000497e+00
4.330000000000000071e+00,2.567617862175961552e-01,-5.734610371960101594e-01,0.000000000000000000e+00,1.801580981574968598e+00,-8.066409413037931575e-01,9.810000000000000497e+00
4.339999999999999858e+00,2.531535797044182079e-01,-5.750629888337563944e-01,0.000000000000000000e+00,1.806613661071518440e+00,-7.953054262293585142e-01,9.810000000000000497e+00
4.350000000000000533e+00,2.495353791213816286e-01,-5.766422379693693090e-01,0.000000000000000000e+00,1.811575018554147709e+00,-7.839385138584763490e-01,9.810000000000000497e+00
4.360000000000000320e+00,2.459073273088508427e-01,-5.781987222567964713e-01,0.000000000000000000e+00,1.816464858156956907e+00,-7.725406529373864961e-01,9.810000000000000497e+00
4.370000000000000107e+00,2.422695674960984591e-01,-5.797323802487038824e-01,0.000000000000000000e+00,1.821282986837452489e+00,-7.611122934341194579e-01,9.810000000000000497e+00
4.379999999999999893e+00,2.386222432956535133e-01,-5.812431513988997045e-01,0.000000000000000000e+00,1.826029214384163213e+00,-7.496538865207413860e-01,9.810000000000000497e+00
4.389999999999999680e+00,2.349654986976297266e-01,-5.827309760647262360e-01,0.000000000000000000e+00,1.830703353424153468e+00,-7.381658845555356674e-01,9.810000000000000497e+00
4.400000000000000355e+00,2.312994780640424686e-01,-5.841957955094129185e-01,0.000000000000000000e+00,1.835305219430416690e+00,-7.266487410651493173e-01,9.810000000000000497e+00
4.410000000000000142e+00,2.276243261231098713e-01,-5.856375519043962585e-01,0.000000000000000000e+00,1.839834630729162646e+00,-7.151029107266893003e-01,9.810000000000000497e+00
4.419999999999999929e+00,2.239401879635370129e-01,-5.870561883316025575e-01,0.000000000000000000e+00,1.844291408506988805e+00,-7.035288493497653395e-01,9.810000000000000497e+00
4.429999999999999716e+00,2.202472090287906081e-01,-5.884516487856946698e-01,0.000000000000000000e+00,1.848675376817939364e+00,-6.919270138585040808e-01,9.810000000000000497e+00
4.440000000000000391e+00,2.165455351113548532e-01,-5.898238781762834559e-01,0.000000000000000000e+00,1.852986362590453240e+00,-6.802978622735029735e-01,9.810000000000000497e+00
4.450000000000000178e+00,2.128353123469785002e-01,-5.911728223301020435e-01,0.000000000000000000e+00,1.857224195634192609e+00,-6.686418536937566159e-01,9.810000000000000497e+00
4.459999999999999964e+00,2.091166872089033901e-01,-5.924984279931450049e-01,0.000000000000000000e+00,1.861388708646765311e+00,-6.569594482785254819e-01,9.810000000000000497e+00
4.469999999999999751e+00,2.053898065020821062e-01,-5.938006428327705644e-01,0.000000000000000000e+00,1.865479737220328671e+00,-6.452511072291702288e-01,9.810000000000000497e+00
4.480000000000000426e+00,2.016548173573835256e-01,-5.950794154397668345e-01,0.000000000000000000e+00,1.869497119848079869e+00,-6.335172927709475932e-01,9.810000000000000497e+00
4.490000000000000213e+00,1.979118672257846046e-01,-5.963346953303804154e-01,0.000000000000000000e+00,1.873440697930630838e+00,-6.217584681347634312e-01,9.810000000000000497e+00
4.500000000000000000e+00,1.941611038725467031e-01,-5.975664329483111326e-01,0.000000000000000000e+00,1.877310315782271921e+00,-6.099750975388774643e-01,9.810000000000000497e+00
4.509999999999999787e+00,1.904026753713850273e-01,-5.987745796666665843e-01,0.000000000000000000e+00,1.881105820637116066e+00,-5.981676461705853765e-01,9.810000000000000497e+00
4.520000000000000462e+00,1.866367300986212230e-01,-5.999590877898831609e-01,0.000000000000000000e+00,1.884827062655130669e+00,-5.863365801678495082e-01,9.810000000000000497e+00
4.530000000000000249e+00,1.828634167273263944e-01,-6.011199105556083166e-01,0.000000000000000000e+00,1.888473894928052621e+00,-5.744823666008975760e-01,9.810000000000000497e+00
4.540000000000000036e+00,1.790828842214515493e-01,-6.022570021365467596e-01,0.000000000000000000e+00,1.892046173485187666e+00,-5.626054734537837554e-01,9.810000000000000497e+00
4.549999999999999822e+00,1.752952818299469140e-01,-6.033703176422700043e-01,0.000000000000000000e+00,1.895543757299095411e+00,-5.507063696059135705e-01,9.810000000000000497e+00
4.560000000000000497e+00,1.715007590808686477e-01,-6.044598131209883984e-01,0.000000000000000000e+00,1.898966508291156208e+00,-5.387855248135300368e-01,9.810000000000000497e+00
4.570000000000000284e+00,1.676994657754784790e-01,-6.055254455612856246e-01,0.000000000000000000e+00,1.902314291337021013e+00,-5.268434096911761566e-01,9.810000000000000497e+00
4.580000000000000071e+00,1.638915519823272715e-01,-6.065671728938176743e-01,0.000000000000000000e+00,1.905586974271947343e+00,-5.148804956931091192e-01,9.810000000000000497e+00
4.589999999999999858e+00,1.600771680313308465e-01,-6.075849539929731868e-01,0.000000000000000000e+00,1.908784427896017100e+00,-5.028972550946878561e-01,9.810000000000000497e+00
4.600000000000000533e+00,1.562564645078362291e-01,-6.085787486784973721e-01,0.000000000000000000e+00,1.911906525979236271e+00,-4.908941609737325074e-01,9.810000000000000497e+00
4.610000000000000320e+00,1.524295922466773201e-01,-6.095485177170771873e-01,0.000000000000000000e+00,1.914953145266517609e+00,-4.788716871918491935e-01,9.810000000000000497e+00
4.620000000000000107e+00,1.485967023262174946e-01,-6.104942228238919855e-01,0.000000000000000000e+00,1.917924165482549181e+00,-4.668303083757142646e-01,9.810000000000000497e+00
4.629999999999999893e+00,1.447579460623884262e-01,-6.114158266641230854e-01,0.000000000000000000e+00,1.920819469336539465e+00,-4.547704998983470581e-01,9.810000000000000497e+00
4.639999999999999680e+00,1.409134750027138949e-01,-6.123132928544291476e-01,0.000000000000000000e+00,1.923638942526850082e+00,-4.426927378603349172e-01,9.810000000000000497e+00
4.650000000000000355e+00,1.370634409203284332e-01,-6.131865859643815808e-01,0.000000000000000000e+00,1.926382473745507307e+00,-4.305974990710424444e-01,9.810000000000000497e+00
4.660000000000000142e+00,1.332079958079862014e-01,-6.140356715178637570e-01,0.000000000000000000e+00,1.929049954682596102e+00,-4.184852610297894460e-01,9.810000000000000497e+00
4.669999999999999929e+00,1.293472918720578180e-01,-6.148605159944318110e-01,0.000000000000000000e+00,1.931641280030536700e+00,-4.063565019069916295e-01,9.810000000000000497e+00
4.679999999999999716e+00,1.254814815265246630e-01,-6.156610868306382489e-01,0.000000000000000000e+00,1.934156347488241057e+00,-3.942117005252932516e-01,9.810000000000000497e+00
4.690000000000000391e+00,1.216107173869589997e-01,-6.164373524213174749e-01,0.000000000000000000e+00,1.936595057765153172e+00,-3.820513363406549123e-01,9.810000000000000497e+00
4.700000000000000178e+00,1.177351522645020548e-01,-6.171892821208326829e-01,0.000000000000000000e+00,1.938957314585166403e+00,-3.698758894234353556e-01,9.810000000000000497e+00
4.709999999999999964e+00,1.138549391598288468e-01,-6.179168462442871101e-01,0.000000000000000000e+00,1.941243024690426200e+00,-3.576858404394311908e-01,9.810000000000000497e+00
4.719999999999999751e+00,1.099702312571082391e-01,-6.186200160686949889e-01,0.000000000000000000e+00,1.943452097845012050e+00,-3.454816706309018493e-01,9.810000000000000497e+00
4.730000000000000426e+00,1.060811819179565130e-01,-6.192987638341156398e-01,0.000000000000000000e+00,1.945584446838497961e+00,-3.332638617975745565e-01,9.810000000000000497e+00
4.740000000000000213e+00,1.021879446753832937e-01,-6.199530627447493725e-01,0.000000000000000000e+00,1.947639987489396596e+00,-3.210328962776243800e-01,9.810000000000000497e+00
4.750000000000000000e+00,9.829067322772779003e-02,-6.205828869699955286e-01,0.000000000000000000e+00,1.949618638648483060e+00,-3.087892569286245781e-01,9.810000000000000497e+00
4.759999999999999787e+00,9.438952143259386751e-02,-6.211882116454723324e-01,0.000000000000000000e+00,1.951520322201997670e+00,-2.965334271084932305e-01,9.810000000000000497e+00
4.770000000000000462e+00,9.048464330077450601e-02,-6.217690128739979949e-01,0.000000000000000000e+00,1.953344963074729712e+00,-2.842658906564061172e-01,9.810000000000000497e+00
4.780000000000000249e+00,8.657619299017217662e-02,-6.223252677265344035e-01,0.000000000000000000e+00,1.955092489232981734e+00,-2.719871318736970522e-01,9.810000000000000497e+00
4.790000000000000036e+00,8.266432479971277947e-02,-6.228569542430926198e-01,0.000000000000000000e+00,1.956762831687413495e+00,-2.596976355047381779e-01,9.810000000000000497e+00
4.799999999999999822e+00,7.874919316325455776e-02,-6.233640514335990757e-01,0.000000000000000000e+00,1.958355924495764677e+00,-2.473978867178041052e-01,9.810000000000000497e+00
4.810000000000000497e+00,7.483095264348992026e-02,-6.238465392787252428e-01,0.000000000000000000e+00,1.959871704765459688e+00,-2.350883710859136555e-01,9.810000000000000497e+00
4.820000000000000284e+00,7.090975792584630621e-02,-6.243043987306770015e-01,0.000000000000000000e+00,1.961310112656087901e+00,-2.227695745676693539e-01,9.810000000000000497e+00
4.830000000000000071e+00,6.698576381237700272e-02,-6.247376117139472607e-01,0.000000000000000000e+00,1.962671091381769539e+00,-2.104419834880646156e-01,9.810000000000000497e+00
4.839999999999999858e+00,6.305912521565011641e-02,-6.251461611260292761e-01,0.000000000000000000e+00,1.963954587213394554e+00,-1.981060845192852971e-01,9.810000000000000497e+00
4.850000000000000533e+00,5.912999715263395767e-02,-6.255300308380916663e-01,0.000000000000000000e+00,1.965160549480745367e+00,-1.857623646615002289e-01,9.810000000000000497e+00
4.860000000000000320e+00,5.519853473857753295e-02,-6.258892056956154581e-01,0.000000000000000000e+00,1.966288930574496385e+00,-1.734113112236361776e-01,9.810000000000000497e+00
4.870000000000000107e+00,5.126489318088438274e-02,-6.262236715189923864e-01,0.000000000000000000e+00,1.967339685948094052e+00,-1.610534118041318519e-01,9.810000000000000497e+00
4.879999999999999893e+00,4.732922777298829292e-02,-6.265334151040844457e-01,0.000000000000000000e+00,1.968312774119515884e+00,-1.486891542716980152e-01,9.810000000000000497e+00
4.889999999999999680e+00,4.339169388822005508e-02,-6.268184242227451408e-01,0.000000000000000000e+00,1.969208156672906718e+00,-1.363190267460492600e-01,9.810000000000000497e+00
4.900000000000000355e+00,3.945244697367531611e-02,-6.270786876233026552e-01,0.000000000000000000e+00,1.970025798260096384e+00,-1.239435175786392507e-01,9.810000000000000497e+00
4.910000000000000142e+00,3.551164254407802867e-02,-6.273141950310034964e-01,0.000000000000000000e+00,1.970765666601995481e+00,-1.115631153333822845e-01,9.810000000000000497e+00
4.919999999999999929e+00,3.156943617563848919e-02,-6.275249371484185046e-01,0.000000000000000000e+00,1.971427732489868134e+00,-9.917830876735773959e-02,9.810000000000000497e+00
4.929999999999999716e+00,2.762598349991454705e-02,-6.277109056558096700e-01,0.000000000000000000e+00,1.972011969786487295e+00,-8.678958681152437737e-02,9.810000000000000497e+00
4.940000000000000391e+00,2.368144019766473332e-02,-6.278720932114587594e-01,0.000000000000000000e+00,1.972518355427164582e+00,-7.439743855140953932e-02,9.810000000000000497e+00
4.950000000000000178e+00,1.973596199270531357e-02,-6.280084934519570838e-01,0.000000000000000000e+00,1.972946869420662219e+00,-6.200235320781039006e-02,9.810000000000000497e+00
4.959999999999999964e+00,1.578970464576008245e-02,-6.281201009924566314e-01,0.000000000000000000e+00,1.973297494849980849e+00,-4.960482011747249786e-02,9.810000000000000497e+00
4.969999999999999751e+00,1.184282394831146119e-02,-6.282069114268830079e-01,0.000000000000000000e+00,1.973570217873029442e+00,-3.720532871377255774e-02,9.810000000000000497e+00
4.980000000000000426e+00,7.895475716451242840e-03,-6.282689213281087426e-01,0.000000000000000000e+00,1.973765027723169974e+00,-2.480436850739983420e-02,9.810000000000000497e+00
4.990000000000000213e+00,3.947815784729518697e-03,-6.283061282480890686e-01,0.000000000000000000e+00,1.973881916709643081e+00,-1.240242906703208081e-02,9.810000000000000497e+00
5.000000000000000000e+00,7.694682774887159092e-17,-6.283185307179586232e-01,0.000000000000000000e+00,1.973920880217871598e+00,-2.417355887728942374e-16,9.810000000000000497e+00
5.009999999999999787e+00,-3.947815784729364307e-03,-6.283061282480890686e-01,0.000000000000000000e+00,1.973881916709643081e+00,1.240242906703159682e-02,9.810000000000000497e+00
5.020000000000000462e+00,-7.895475716451369474e-03,-6.282689213281087426e-01,0.000000000000000000e+00,1.973765027723169974e+00,2.480436850740022972e-02,9.810000000000000497e+00
5.030000000000000249e+00,-1.184282394831130680e-02,-6.282069114268830079e-01,0.000000000000000000e+00,1.973570217873029442e+00,3.720532871377207201e-02,9.810000000000000497e+00
5.040000000000000036e+00,-1.578970464575992980e-02,-6.281201009924566314e-01,0.000000000000000000e+00,1.973297494849980849e+00,4.960482011747201908e-02,9.810000000000000497e+00
5.049999999999999822e+00,-1.973596199270516091e-02,-6.280084934519570838e-01,0.000000000000000000e+00,1.972946869420662219e+00,6.200235320780991127e-02,9.810000000000000497e+00
5.060000000000000497e+00,-2.368144019766485822e-02,-6.278720932114587594e-01,0.000000000000000000e+00,1.972518355427164582e+00,7.439743855140994178e-02,9.810000000000000497e+00
5.070000000000000284e+00,-2.762598349991439439e-02,-6.277109056558096700e-01,0.000000000000000000e+00,1.972011969786487295e+00,8.678958681152390553e-02,9.810000000000000497e+00
5.080000000000000071e+00,-3.156943617563833654e-02,-6.275249371484185046e-01,0.000000000000000000e+00,1.971427732489868134e+00,9.917830876735725387e-02,9.810000000000000497e+00
5.089999999999999858e+00,-3.551164254407787602e-02,-6.273141950310034964e-01,0.000000000000000000e+00,1.970765666601995481e+00,1.115631153333817988e-01,9.810000000000000497e+00
5.100000000000000533e+00,-3.945244697367571857e-02,-6.270786876233026552e-01,0.000000000000000000e+00,1.970025798260096384e+00,1.239435175786404997e-01,9.810000000000000497e+00
5.110000000000000320e+00,-4.339169388821990242e-02,-6.268184242227451408e-01,0.000000000000000000e+00,1.969208156672906718e+00,1.363190267460487604e-01,9.810000000000000497e+00
5.120000000000000107e+00,-4.732922777298813333e-02,-6.265334151040844457e-01,0.000000000000000000e+00,1.968312774119515884e+00,1.486891542716975434e-01,9.810000000000000497e+00
5.129999999999999893e+00,-5.126489318088423008e-02,-6.262236715189923864e-01,0.000000000000000000e+00,1.967339685948094052e+00,1.610534118041313800e-01,9.810000000000000497e+00
5.139999999999999680e+00,-5.519853473857737336e-02,-6.258892056956154581e-01,0.000000000000000000e+00,1.966288930574496385e+00,1.734113112236356780e-01,9.810000000000000497e+00
5.150000000000000355e+00,-5.912999715263436012e-02,-6.255300308380915553e-01,0.000000000000000000e+00,1.965160549480745145e+00,1.857623646615014779e-01,9.810000000000000497e+00
5.160000000000000142e+00,-6.305912521564996376e-02,-6.251461611260292761e-01,0.000000000000000000e+00,1.963954587213394554e+00,1.981060845192848252e-01,9.810000000000000497e+00
5.169999999999999929e+00,-6.698576381237685007e-02,-6.247376117139472607e-01,0.000000000000000000e+00,1.962671091381769539e+00,2.104419834880641438e-01,9.810000000000000497e+00
5.179999999999999716e+00,-7.090975792584615356e-02,-6.243043987306771125e-01,0.000000000000000000e+00,1.961310112656088123e+00,2.227695745676688821e-01,9.810000000000000497e+00
5.190000000000000391e+00,-7.483095264349004516e-02,-6.238465392787252428e-01,0.000000000000000000e+00,1.959871704765459688e+00,2.350883710859140441e-01,9.810000000000000497e+00
5.200000000000000178e+00,-7.874919316325440510e-02,-6.233640514335990757e-01,0.000000000000000000e+00,1.958355924495764899e+00,2.473978867178036056e-01,9.810000000000000497e+00
5.209999999999999964e+00,-8.266432479971264069e-02,-6.228569542430926198e-01,0.000000000000000000e+00,1.956762831687413495e+00,2.596976355047377893e-01,9.810000000000000497e+00
5.219999999999999751e+00,-8.657619299017202397e-02,-6.223252677265345145e-01,0.000000000000000000e+00,1.955092489232981956e+00,2.719871318736966082e-01,9.810000000000000497e+00
5.230000000000000426e+00,-9.048464330077463091e-02,-6.217690128739979949e-01,0.000000000000000000e+00,1.953344963074729712e+00,2.842658906564065058e-01,9.810000000000000497e+00
5.240000000000000213e+00,-9.438952143259370098e-02,-6.211882116454724434e-01,0.000000000000000000e+00,1.951520322201997892e+00,2.965334271084927309e-01,9.810000000000000497e+00
5.250000000000000000e+00,-9.829067322772763737e-02,-6.205828869699956396e-01,0.000000000000000000e+00,1.949618638648483282e+00,3.087892569286240785e-01,9.810000000000000497e+00
5.259999999999999787e+00,-1.021879446753831411e-01,-6.199530627447493725e-01,0.000000000000000000e+00,1.947639987489396596e+00,3.210328962776238804e-01,9.810000000000000497e+00
5.270000000000000462e+00,-1.060811819179566240e-01,-6.192987638341156398e-01,0.000000000000000000e+00,1.945584446838497961e+00,3.332638617975749451e-01,9.810000000000000497e+00
5.280000000000000249e+00,-1.099702312571081003e-01,-6.186200160686949889e-01,0.000000000000000000e+00,1.943452097845012050e+00,3.454816706309014607e-01,9.810000000000000497e+00
5.290000000000000036e+00,-1.138549391598287081e-01,-6.179168462442871101e-01,0.000000000000000000e+00,1.941243024690426200e+00,3.576858404394307467e-01,9.810000000000000497e+00
5.299999999999999822e+00,-1.177351522645019022e-01,-6.171892821208326829e-01,0.000000000000000000e+00,1.938957314585166403e+00,3.698758894234348560e-01,9.810000000000000497e+00
5.310000000000000497e+00,-1.216107173869591107e-01,-6.164373524213174749e-01,0.000000000000000000e+00,1.936595057765153172e+00,3.820513363406553009e-01,9.810000000000000497e+00
5.320000000000000284e+00,-1.254814815265244965e-01,-6.156610868306383599e-01,0.000000000000000000e+00,1.934156347488241279e+00,3.942117005252927520e-01,9.810000000000000497e+00
5.330000000000000071e+00,-1.293472918720576792e-01,-6.148605159944319221e-01,0.000000000000000000e+00,1.931641280030536922e+00,4.063565019069911854e-01,9.810000000000000497e+00
5.339999999999999858e+00,-1.332079958079860627e-01,-6.140356715178637570e-01,0.000000000000000000e+00,1.929049954682596102e+00,4.184852610297889464e-01,9.810000000000000497e+00
5.350000000000000533e+00,-1.370634409203288495e-01,-6.131865859643814698e-01,0.000000000000000000e+00,1.926382473745507085e+00,4.305974990710437211e-01,9.810000000000000497e+00
5.360000000000000320e+00,-1.409134750027137284e-01,-6.123132928544291476e-01,0.000000000000000000e+00,1.923638942526850082e+00,4.426927378603344176e-01,9.810000000000000497e+00
5.370000000000000107e+00,-1.447579460623882874e-01,-6.114158266641230854e-01,0.000000000000000000e+00,1.920819469336539465e+00,4.547704998983466140e-01,9.810000000000000497e+00
5.379999999999999893e+00,-1.485967023262173559e-01,-6.104942228238919855e-01,0.000000000000000000e+00,1.917924165482549181e+00,4.668303083757138205e-01,9.810000000000000497e+00
5.389999999999999680e+00,-1.524295922466771536e-01,-6.095485177170772984e-01,0.000000000000000000e+00,1.914953145266517831e+00,4.788716871918486939e-01,9.810000000000000497e+00
5.400000000000000355e+00,-1.562564645078366177e-01,-6.085787486784972611e-01,0.000000000000000000e+00,1.911906525979236049e+00,4.908941609737337841e-01,9.810000000000000497e+00
5.410000000000000142e+00,-1.600771680313306522e-01,-6.075849539929732979e-01,0.000000000000000000e+00,1.908784427896017322e+00,5.028972550946873010e-01,9.810000000000000497e+00
5.419999999999999929e+00,-1.638915519823271327e-01,-6.065671728938176743e-01,0.000000000000000000e+00,1.905586974271947343e+00,5.148804956931086751e-01,9.810000000000000497e+00
5.429999999999999716e+00,-1.676994657754783402e-01,-6.055254455612856246e-01,0.000000000000000000e+00,1.902314291337021013e+00,5.268434096911757125e-01,9.810000000000000497e+00
5.440000000000000391e+00,-1.715007590808687588e-01,-6.044598131209883984e-01,0.000000000000000000e+00,1.898966508291156208e+00,5.387855248135303698e-01,9.810000000000000497e+00
5.450000000000000178e+00,-1.752952818299467197e-01,-6.033703176422700043e-01,0.000000000000000000e+00,1.895543757299095633e+00,5.507063696059130153e-01,9.810000000000000497e+00
5.459999999999999964e+00,-1.790828842214513827e-01,-6.022570021365467596e-01,0.000000000000000000e+00,1.892046173485187666e+00,5.626054734537832003e-01,9.810000000000000497e+00
5.469999999999999751e+00,-1.828634167273262556e-01,-6.011199105556083166e-01,0.000000000000000000e+00,1.888473894928052621e+00,5.744823666008971319e-01,9.810000000000000497e+00
5.480000000000000426e+00,-1.866367300986213340e-01,-5.999590877898831609e-01,0.000000000000000000e+00,1.884827062655130669e+00,5.863365801678498412e-01,9.810000000000000497e+00
5.490000000000000213e+00,-1.904026753713848330e-01,-5.987745796666666953e-01,0.000000000000000000e+00,1.881105820637116288e+00,5.981676461705848213e-01,9.810000000000000497e+00
5.500000000000000000e+00,-1.941611038725465643e-01,-5.975664329483112436e-01,0.000000000000000000e+00,1.877310315782272143e+00,6.099750975388770202e-01,9.810000000000000497e+00
5.509999999999999787e+00,-1.979118672257844658e-01,-5.963346953303805265e-01,0.000000000000000000e+00,1.873440697930631060e+00,6.217584681347629871e-01,9.810000000000000497e+00
5.520000000000000462e+00,-2.016548173573836922e-01,-5.950794154397668345e-01,0.000000000000000000e+00,1.869497119848079869e+00,6.335172927709480373e-01,9.810000000000000497e+00
5.530000000000000249e+00,-2.053898065020819674e-01,-5.938006428327706754e-01,0.000000000000000000e+00,1.865479737220328893e+00,6.452511072291697847e-01,9.810000000000000497e+00
5.540000000000000036e+00,-2.091166872089032236e-01,-5.924984279931450049e-01,0.000000000000000000e+00,1.861388708646765311e+00,6.569594482785250378e-01,9.810000000000000497e+00
5.549999999999999822e+00,-2.128353123469783614e-01,-5.911728223301021545e-01,0.000000000000000000e+00,1.857224195634192832e+00,6.686418536937561719e-01,9.810000000000000497e+00
5.560000000000000497e+00,-2.165455351113549642e-01,-5.898238781762834559e-01,0.000000000000000000e+00,1.852986362590453240e+00,6.802978622735033065e-01,9.810000000000000497e+00
5.570000000000000284e+00,-2.202472090287904694e-01,-5.884516487856946698e-01,0.000000000000000000e+00,1.848675376817939586e+00,6.919270138585036367e-01,9.810000000000000497e+00
5.580000000000000071e+00,-2.239401879635368742e-01,-5.870561883316026686e-01,0.000000000000000000e+00,1.844291408506989027e+00,7.035288493497648954e-01,9.810000000000000497e+00
5.589999999999999858e+00,-2.276243261231097326e-01,-5.856375519043962585e-01,0.000000000000000000e+00,1.839834630729162646e+00,7.151029107266888563e-01,9.810000000000000497e+00
5.600000000000000533e+00,-2.312994780640428294e-01,-5.841957955094128074e-01,0.000000000000000000e+00,1.835305219430416246e+00,7.266487410651504275e-01,9.810000000000000497e+00
5.610000000000000320e+00,-2.349654986976295878e-01,-5.827309760647262360e-01,0.000000000000000000e+00,1.830703353424153468e+00,7.381658845555352233e-01,9.810000000000000497e+00
5.620000000000000107e+00,-2.386222432956533746e-01,-5.812431513988998155e-01,0.000000000000000000e+00,1.826029214384163435e+00,7.496538865207409419e-01,9.810000000000000497e+00
5.629999999999999893e+00,-2.422695674960983203e-01,-5.797323802487038824e-01,0.000000000000000000e+00,1.821282986837452711e+00,7.611122934341190138e-01,9.810000000000000497e+00
5.639999999999999680e+00,-2.459073273088507039e-01,-5.781987222567964713e-01,0.000000000000000000e+00,1.816464858156957130e+00,7.725406529373860520e-01,9.810000000000000497e+00
5.650000000000000355e+00,-2.495353791213819894e-01,-5.766422379693690869e-01,0.000000000000000000e+00,1.811575018554147043e+00,7.839385138584774593e-01,9.810000000000000497e+00
5.660000000000000142e+00,-2.531535797044180969e-01,-5.750629888337565054e-01,0.000000000000000000e+00,1.806613661071518662e+00,7.953054262293580701e-01,9.810000000000000497e+00
5.669999999999999929e+00,-2.567617862175960441e-01,-5.734610371960102704e-01,0.000000000000000000e+00,1.801580981574968821e+00,8.066409413037927134e-01,9.810000000000000497e+00
5.679999999999999716e+00,-2.603598562151004381e-01,-5.718364462984381058e-01,0.000000000000000000e+00,1.796477178746067604e+00,8.179446115750543811e-01,9.810000000000000497e+00
5.690000000000000391e+00,-2.639476476512895298e-01,-5.701892802771068025e-01,0.000000000000000000e+00,1.791302454074210404e+00,8.292159907935983121e-01,9.810000000000000497e+00
5.700000000000000178e+00,-2.675250188862997591e-01,-5.685196041593105765e-01,0.000000000000000000e+00,1.786057011848667386e+00,8.404546339846700187e-01,9.810000000000000497e+00
5.709999999999999964e+00,-2.710918286916403908e-01,-5.668274838610039001e-01,0.000000000000000000e+00,1.780741059150516836e+00,8.516600974658801171e-01,9.810000000000000497e+00
5.719999999999999751e+00,-2.746479362557680548e-01,-5.651129861841982516e-01,0.000000000000000000e+00,1.775354805844467698e+00,8.628319388647187616e-01,9.810000000000000497e+00
5.730000000000000426e+00,-2.781932011896451895e-01,-5.633761788143264448e-01,0.000000000000000000e+00,1.769898464570577534e+00,8.739697171360166772e-01,9.810000000000000497e+00
5.740000000000000213e+00,-2.817274835322818860e-01,-5.616171303175697682e-01,0.000000000000000000e+00,1.764372250735858794e+00,8.850729925793562325e-01,9.810000000000000497e+00
5.750000000000000000e+00,-2.852506437562637442e-01,-5.598359101381505942e-01,0.000000000000000000e+00,1.758776382505769398e+00,8.961413268564374368e-01,9.810000000000000497e+00
5.759999999999999787e+00,-2.887625427732574135e-01,-5.580325885955917942e-01,0.000000000000000000e+00,1.753111080795606513e+00,9.071742830083738829e-01,9.810000000000000497e+00
5.770000000000000462e+00,-2.922630419395030876e-01,-5.562072368819400703e-01,0.000000000000000000e+00,1.747376569261780865e+00,9.181714254729483882e-01,9.810000000000000497e+00
5.780000000000000249e+00,-2.957520030612874051e-01,-5.543599270589555372e-01,0.000000000000000000e+00,1.741573074292988466e+00,9.291323201018065747e-01,9.810000000000000497e+00
5.790000000000000036e+00,-2.992292884003994735e-01,-5.524907320552669976e-01,0.000000000000000000e+00,1.735700825001273762e+00,9.400565341775964923e-01,9.810000000000000497e+00
5.799999999999999822e+00,-3.026947606795678536e-01,-5.505997256634926895e-01,0.000000000000000000e+00,1.729760053212984205e+00,9.509436364310509537e-01,9.810000000000000497e+00
5.810000000000000497e+00,-3.061482830878815009e-01,-5.486869825373267284e-01,0.000000000000000000e+00,1.723750993459616687e+00,9.617931970580169132e-01,9.810000000000000497e+00
5.820000000000000284e+00,-3.095897192861884473e-01,-5.467525781885929081e-01,0.000000000000000000e+00,1.717673882968562271e+00,9.726047877364160099e-01,9.810000000000000497e+00
5.830000000000000071e+00,-3.130189334124802158e-01,-5.447965889842626419e-01,0.000000000000000000e+00,1.711528961653737468e+00,9.833779816431604814e-01,9.810000000000000497e+00
5.839999999999999858e+00,-3.164357900872554197e-01,-5.428190921434403737e-01,0.000000000000000000e+00,1.705316472106113146e+00,9.941123534710035736e-01,9.810000000000000497e+00
5.850000000000000533e+00,-3.198401544188630430e-01,-5.408201657343152391e-01,0.000000000000000000e+00,1.699036659584139075e+00,1.004807479445325225e+00,9.810000000000000497e+00
5.860000000000000320e+00,-3.232318920088277370e-01,-5.387998886710796409e-01,0.000000000000000000e+00,1.692689772004062121e+00,1.015462937340862570e+00,9.810000000000000497e+00
5.870000000000000107e+00,-3.266108689571579071e-01,-5.367583407108124094e-01,0.000000000000000000e+00,1.686276059930135407e+00,1.026078306498386050e+00,9.810000000000000497e+00
5.879999999999999893e+00,-3.299769518676287094e-01,-5.346956024503315419e-01,0.000000000000000000e+00,1.679795776564730003e+00,1.036653167841295131e+00,9.810000000000000497e+00
5.889999999999999680e+00,-3.333300078530511690e-01,-5.326117553230111934e-01,0.000000000000000000e+00,1.673249177738336479e+00,1.047187103892173621e+00,9.810000000000000497e+00
5.900000000000000355e+00,-3.366699045405160962e-01,-5.305068815955680250e-01,0.000000000000000000e+00,1.666636521899466983e+00,1.057679698789262268e+00,9.810000000000000497e+00
5.910000000000000142e+00,-3.399965100766205728e-01,-5.283810643648130245e-01,0.000000000000000000e+00,1.659958070104452510e+00,1.068130538302879184e+00,9.810000000000000497e+00
5.919999999999999929e+00,-3.433096931326747314e-01,-5.262343875543701310e-01,0.000000000000000000e+00,1.653214086007133377e+00,1.078539209851777203e+00,9.810000000000000497e+00
5.929999999999999716e+00,-3.466093229098841100e-01,-5.240669359113643289e-01,0.000000000000000000e+00,1.646404835848455095e+00,1.088905302519424412e+00,9.810000000000000497e+00
5.940000000000000391e+00,-3.498952691445156860e-01,-5.218787950030746581e-01,0.000000000000000000e+00,1.639530588445953008e+00,1.099228407070233837e+00,9.810000000000000497e+00
5.950000000000000178e+00,-3.531674021130378760e-01,-5.196700512135581373e-01,0.000000000000000000e+00,1.632591615183145883e+00,1.109508115965712083e+00,9.810000000000000497e+00
5.959999999999999964e+00,-3.564255926372438821e-01,-5.174407917402374935e-01,0.000000000000000000e+00,1.625588189998816269e+00,1.119744023380553566e+00,9.810000000000000497e+00
5.969999999999999751e+00,-3.596697120893511679e-01,-5.151911045904592479e-01,0.000000000000000000e+00,1.618520589376197583e+00,1.129935725218661702e+00,9.810000000000000497e+00
5.980000000000000426e+00,-3.628996323970785642e-01,-5.129210785780201620e-01,0.000000000000000000e+00,1.611389092332061290e+00,1.140082819129098368e+00,9.810000000000000497e+00
5.990000000000000213e+00,-3.661152260487021692e-01,-5.106308033196607088e-01,0.000000000000000000e+00,1.604193980405700604e+00,1.150184904521969198e+00,9.810000000000000497e+00
6.000000000000000000e+00,-3.693163660980912644e-01,-5.083203692315260147e-01,0.000000000000000000e+00,1.596935537647813375e+00,1.160241582584242037e+00,9.810000000000000497e+00
6.009999999999999787e+00,-3.725029261697176963e-01,-5.059898675255979361e-01,0.000000000000000000e+00,1.589614050609291063e+00,1.170252456295486132e+00,9.810000000000000497e+00
6.020000000000000462e+00,-3.756747804636461630e-01,-5.036393902060933847e-01,0.000000000000000000e+00,1.582229808329906229e+00,1.180217130443549145e+00,9.810000000000000497e+00
6.030000000000000249e+00,-3.788318037605001853e-01,-5.012690300658322329e-01,0.000000000000000000e+00,1.574783102326899664e+00,1.190135211640157564e+00,9.810000000000000497e+00
6.040000000000000036e+00,-3.819738714264057089e-01,-4.988788806825740774e-01,0.000000000000000000e+00,1.567274226583473817e+00,1.200006308336448502e+00,9.810000000000000497e+00
6.049999999999999822e+00,-3.851008594179110567e-01,-4.964690364153243052e-01,0.000000000000000000e+00,1.559703477537186300e+00,1.209830030838425108e+00,9.810000000000000497e+00
6.060000000000000497e+00,-3.882126442868853444e-01,-4.940395924006076300e-01,0.000000000000000000e+00,1.552071154068244807e+00,1.219605991322346483e+00,9.810000000000000497e+00
6.070000000000000284e+00,-3.913091031853894730e-01,-4.915906445487144283e-01,0.000000000000000000e+00,1.544377557487712549e+00,1.229333803850029883e+00,9.810000000000000497e+00
6.080000000000000071e+00,-3.943901138705281917e-01,-4.891222895399126580e-01,0.000000000000000000e+00,1.536622991525609327e+00,1.239013084384093411e+00,9.810000000000000497e+00
6.089999999999999858e+00,-3.974555547092754604e-01,-4.866346248206311897e-01,0.000000000000000000e+00,1.528807762318920016e+00,1.248643450803115895e+00,9.810000000000000497e+00
6.100000000000000533e+00,-4.005053046832759978e-01,-4.841277485996134944e-01,0.000000000000000000e+00,1.520932178399512003e+00,1.258224522916721710e+00,9.810000000000000497e+00
6.110000000000000320e+00,-4.035392433936221823e-01,-4.816017598440409664e-01,0.000000000000000000e+00,1.512996550681954933e+00,1.267755922480586994e+00,9.810000000000000497e+00
6.120000000000000107e+00,-4.065572510656091931e-01,-4.790567582756239395e-01,0.000000000000000000e+00,1.505001192451241421e+00,1.277237273211378810e+00,9.810000000000000497e+00
6.129999999999999893e+00,-4.095592085534613958e-01,-4.764928443666668900e-01,0.000000000000000000e+00,1.496946419350425383e+00,1.286668200801604378e+00,9.810000000000000497e+00
6.140000000000000568e+00,-4.125449973450380781e-01,-4.739101193361003328e-01,0.000000000000000000e+00,1.488832549368154901e+00,1.296048332934392366e+00,9.810000000000000497e+00
6.150000000000000355e+00,-4.155144995665095986e-01,-4.713086851454865722e-01,0.000000000000000000e+00,1.480659902826125585e+00,1.305377299298185800e+00,9.810000000000000497e+00
6.160000000000000142e+00,-4.184675979870127183e-01,-4.686886444949932562e-01,0.000000000000000000e+00,1.472428802366429146e+00,1.314654731601365922e+00,9.810000000000000497e+00
6.169999999999999929e+00,-4.214041760232788425e-01,-4.660501008193386752e-01,0.000000000000000000e+00,1.464139572938816691e+00,1.323880263586792783e+00,9.810000000000000497e+00
6.179999999999999716e+00,-4.243241177442348966e-01,-4.633931582837094165e-01,0.000000000000000000e+00,1.455792541787873873e+00,1.333053531046258788e+00,9.810000000000000497e+00
6.190000000000000391e+00,-4.272273078755821074e-01,-4.607179217796469883e-01,0.000000000000000000e+00,1.447388038440095892e+00,1.342174171834873642e+00,9.810000000000000497e+00
6.200000000000000178e+00,-4.301136318043444762e-01,-4.580244969209082972e-01,0.000000000000000000e+00,1.438926394690886346e+00,1.351241825885353798e+00,9.810000000000000497e+00
6.209999999999999964e+00,-4.329829755833955462e-01,-4.553129900392949292e-01,0.000000000000000000e+00,1.430407944591451486e+00,1.360256135222244200e+00,9.810000000000000497e+00
6.219999999999999751e+00,-4.358352259359563052e-01,-4.525835081804553406e-01,0.000000000000000000e+00,1.421833024435614545e+00,1.369216743976047868e+00,9.810000000000000497e+00
6.230000000000000426e+00,-4.386702702600668302e-01,-4.498361590996595716e-01,0.000000000000000000e+00,1.413201972746539914e+00,1.378123298397275098e+00,9.810000000000000497e+00
6.240000000000000213e+00,-4.414879966330308436e-01,-4.470710512575459261e-01,0.000000000000000000e+00,1.404515130263372047e+00,1.386975446870404971e+00,9.810000000000000497e+00
6.250000000000000000e+00,-4.442882938158365658e-01,-4.442882938158367323e-01,0.000000000000000000e+00,1.395772839927776232e+00,1.395772839927775788e+00,9.810000000000000497e+00
6.259999999999999787e+00,-4.470710512575457596e-01,-4.414879966330310102e-01,0.000000000000000000e+00,1.386975446870405415e+00,1.404515130263371603e+00,9.810000000000000497e+00
6.270000000000000462e+00,-4.498361590996596271e-01,-4.386702702600667747e-01,0.000000000000000000e+00,1.378123298397274876e+00,1.413201972746540136e+00,9.810000000000000497e+00
6.280000000000000249e+00,-4.525835081804551741e-01,-4.358352259359564163e-01,0.000000000000000000e+00,1.369216743976048312e+00,1.421833024435614101e+00,9.810000000000000497e+00
6.290000000000000036e+00,-4.553129900392947627e-01,-4.329829755833956573e-01,0.000000000000000000e+00,1.360256135222244644e+00,1.430407944591451042e+00,9.810000000000000497e+00
6.299999999999999822e+00,-4.580244969209081862e-01,-4.301136318043446427e-01,0.000000000000000000e+00,1.351241825885354242e+00,1.438926394690885902e+00,9.810000000000000497e+00
6.310000000000000497e+00,-4.607179217796470438e-01,-4.272273078755820519e-01,0.000000000000000000e+00,1.342174171834873420e+00,1.447388038440096114e+00,9.810000000000000497e+00
6.320000000000000284e+00,-4.633931582837093055e-01,-4.243241177442350076e-01,0.000000000000000000e+00,1.333053531046259232e+00,1.455792541787873429e+00,9.810000000000000497e+00
6.330000000000000071e+00,-4.660501008193385086e-01,-4.214041760232789535e-01,0.000000000000000000e+00,1.323880263586793227e+00,1.464139572938816247e+00,9.810000000000000497e+00
6.339999999999999858e+00,-4.686886444949932007e-01,-4.184675979870128293e-01,0.000000000000000000e+00,1.314654731601366366e+00,1.472428802366428924e+00,9.810000000000000497e+00
6.350000000000000533e+00,-4.713086851454868498e-01,-4.155144995665093210e-01,0.000000000000000000e+00,1.305377299298184912e+00,1.480659902826126473e+00,9.810000000000000497e+00
6.360000000000000320e+00,-4.739101193361003328e-01,-4.125449973450380226e-01,0.000000000000000000e+00,1.296048332934392144e+00,1.488832549368154901e+00,9.810000000000000497e+00
6.370000000000000107e+00,-4.764928443666665014e-01,-4.095592085534617843e-01,0.000000000000000000e+00,1.286668200801605488e+00,1.496946419350424273e+00,9.810000000000000497e+00
6.379999999999999893e+00,-4.790567582756239395e-01,-4.065572510656090821e-01,0.000000000000000000e+00,1.277237273211378588e+00,1.505001192451241421e+00,9.810000000000000497e+00
6.390000000000000568e+00,-4.816017598440411329e-01,-4.035392433936219048e-01,0.000000000000000000e+00,1.267755922480586106e+00,1.512996550681955599e+00,9.810000000000000497e+00
6.400000000000000355e+00,-4.841277485996137164e-01,-4.005053046832757202e-01,0.000000000000000000e+00,1.258224522916720822e+00,1.520932178399512669e+00,9.810000000000000497e+00
6.410000000000000142e+00,-4.866346248206310232e-01,-3.974555547092756824e-01,0.000000000000000000e+00,1.248643450803116561e+00,1.528807762318919572e+00,9.810000000000000497e+00
6.419999999999999929e+00,-4.891222895399123249e-01,-3.943901138705285248e-01,0.000000000000000000e+00,1.239013084384094299e+00,1.536622991525608217e+00,9.810000000000000497e+00
6.429999999999999716e+00,-4.915906445487145393e-01,-3.913091031853894175e-01,0.000000000000000000e+00,1.229333803850029661e+00,1.544377557487712771e+00,9.810000000000000497e+00
6.440000000000000391e+00,-4.940395924006078521e-01,-3.882126442868850669e-01,0.000000000000000000e+00,1.219605991322345595e+00,1.552071154068245473e+00,9.810000000000000497e+00
6.450000000000000178e+00,-4.964690364153241942e-01,-3.851008594179112232e-01,0.000000000000000000e+00,1.209830030838425552e+00,1.559703477537186078e+00,9.810000000000000497e+00
6.459999999999999964e+00,-4.988788806825739663e-01,-3.819738714264058754e-01,0.000000000000000000e+00,1.200006308336448724e+00,1.567274226583473373e+00,9.810000000000000497e+00
6.469999999999999751e+00,-5.012690300658322329e-01,-3.788318037605000743e-01,0.000000000000000000e+00,1.190135211640157342e+00,1.574783102326899886e+00,9.810000000000000497e+00
6.480000000000000426e+00,-5.036393902060932737e-01,-3.756747804636463295e-01,0.000000000000000000e+00,1.180217130443549589e+00,1.582229808329905785e+00,9.810000000000000497e+00
6.490000000000000213e+00,-5.059898675255979361e-01,-3.725029261697176408e-01,0.000000000000000000e+00,1.170252456295485910e+00,1.589614050609291285e+00,9.810000000000000497e+00
6.500000000000000000e+00,-5.083203692315259037e-01,-3.693163660980914309e-01,0.000000000000000000e+00,1.160241582584242481e+00,1.596935537647812930e+00,9.810000000000000497e+00
6.509999999999999787e+00,-5.106308033196604867e-01,-3.661152260487025578e-01,0.000000000000000000e+00,1.150184904521970530e+00,1.604193980405699715e+00,9.810000000000000497e+00
6.520000000000000462e+00,-5.129210785780202730e-01,-3.628996323970784532e-01,0.000000000000000000e+00,1.140082819129098146e+00,1.611389092332061512e+00,9.810000000000000497e+00
6.530000000000000249e+00,-5.151911045904590258e-01,-3.596697120893515009e-01,0.000000000000000000e+00,1.129935725218662812e+00,1.618520589376196694e+00,9.810000000000000497e+00
6.540000000000000036e+00,-5.174407917402373824e-01,-3.564255926372439931e-01,0.000000000000000000e+00,1.119744023380554010e+00,1.625588189998815825e+00,9.810000000000000497e+00
6.549999999999999822e+00,-5.196700512135580263e-01,-3.531674021130380425e-01,0.000000000000000000e+00,1.109508115965712749e+00,1.632591615183145439e+00,9.810000000000000497e+00
6.560000000000000497e+00,-5.218787950030747691e-01,-3.498952691445155749e-01,0.000000000000000000e+00,1.099228407070233615e+00,1.639530588445953230e+00,9.810000000000000497e+00
6.570000000000000284e+00,-5.240669359113639958e-01,-3.466093229098844986e-01,0.000000000000000000e+00,1.088905302519425522e+00,1.646404835848454207e+00,9.810000000000000497e+00
6.580000000000000071e+00,-5.262343875543702421e-01,-3.433096931326746759e-01,0.000000000000000000e+00,1.078539209851776981e+00,1.653214086007133599e+00,9.810000000000000497e+00
6.589999999999999858e+00,-5.283810643648130245e-01,-3.399965100766206838e-01,0.000000000000000000e+00,1.068130538302879629e+00,1.659958070104452288e+00,9.810000000000000497e+00
6.600000000000000533e+00,-5.305068815955682471e-01,-3.366699045405158186e-01,0.000000000000000000e+00,1.057679698789261380e+00,1.666636521899467649e+00,9.810000000000000497e+00
6.610000000000000320e+00,-5.326117553230111934e-01,-3.333300078530512800e-01,0.000000000000000000e+00,1.047187103892174065e+00,1.673249177738336257e+00,9.810000000000000497e+00
6.620000000000000107e+00,-5.346956024503312088e-01,-3.299769518676291535e-01,0.000000000000000000e+00,1.036653167841296463e+00,1.679795776564729115e+00,9.810000000000000497e+00
6.629999999999999893e+00,-5.367583407108124094e-01,-3.266108689571578516e-01,0.000000000000000000e+00,1.026078306498385828e+00,1.686276059930135629e+00,9.810000000000000497e+00
6.640000000000000568e+00,-5.387998886710798629e-01,-3.232318920088274594e-01,0.000000000000000000e+00,1.015462937340861682e+00,1.692689772004062787e+00,9.810000000000000497e+00
6.650000000000000355e+00,-5.408201657343153501e-01,-3.198401544188627099e-01,0.000000000000000000e+00,1.004807479445324114e+00,1.699036659584139741e+00,9.810000000000000497e+00
6.660000000000000142e+00,-5.428190921434401517e-01,-3.164357900872555862e-01,0.000000000000000000e+00,9.941123534710040177e-01,1.705316472106112702e+00,9.810000000000000497e+00
6.669999999999999929e+00,-5.447965889842624199e-01,-3.130189334124806599e-01,0.000000000000000000e+00,9.833779816431618137e-01,1.711528961653736802e+00,9.810000000000000497e+00
6.679999999999999716e+00,-5.467525781885929081e-01,-3.095897192861883918e-01,0.000000000000000000e+00,9.726047877364157879e-01,1.717673882968562271e+00,9.810000000000000497e+00
6.690000000000000391e+00,-5.486869825373269505e-01,-3.061482830878811678e-01,0.000000000000000000e+00,9.617931970580158030e-01,1.723750993459617353e+00,9.810000000000000497e+00
6.700000000000000178e+00,-5.505997256634926895e-01,-3.026947606795680201e-01,0.000000000000000000e+00,9.509436364310515089e-01,1.729760053212983983e+00,9.810000000000000497e+00
6.709999999999999964e+00,-5.524907320552669976e-01,-2.992292884003996400e-01,0.000000000000000000e+00,9.400565341775970474e-01,1.735700825001273540e+00,9.810000000000000497e+00
6.719999999999999751e+00,-5.543599270589556482e-01,-2.957520030612873496e-01,0.000000000000000000e+00,9.291323201018063527e-01,1.741573074292988688e+00,9.810000000000000497e+00
6.730000000000000426e+00,-5.562072368819399593e-01,-2.922630419395032542e-01,0.000000000000000000e+00,9.181714254729489433e-01,1.747376569261780643e+00,9.810000000000000497e+00
6.740000000000000213e+00,-5.580325885955917942e-01,-2.887625427732573025e-01,0.000000000000000000e+00,9.071742830083736608e-01,1.753111080795606513e+00,9.810000000000000497e+00
6.750000000000000000e+00,-5.598359101381504832e-01,-2.852506437562639108e-01,0.000000000000000000e+00,8.961413268564378809e-01,1.758776382505769176e+00,9.810000000000000497e+00
6.759999999999999787e+00,-5.616171303175695462e-01,-2.817274835322823301e-01,0.000000000000000000e+00,8.850729925793575648e-01,1.764372250735858128e+00,9.810000000000000497e+00
